aX,aY,aZ,gX,gY,gZ
0.925,-0.495,0.767,6.714,8.057,-5.249
0.730,-0.430,0.322,-55.176,30.884,134.216
0.785,-0.464,0.349,-21.423,8.118,47.974
0.788,-0.479,0.347,-9.216,-2.747,11.719
0.787,-0.486,0.338,-6.348,-5.066,5.249
0.778,-0.493,0.323,-5.981,-5.554,6.226
0.762,-0.500,0.306,-6.592,-5.554,7.874
0.746,-0.500,0.292,-7.935,-4.578,9.155
0.745,-0.498,0.281,-9.338,-2.869,9.888
0.750,-0.496,0.279,-10.559,-2.014,11.169
0.749,-0.498,0.284,-11.047,-2.136,12.512
0.757,-0.500,0.293,-11.841,-1.526,13.367
0.771,-0.500,0.298,-12.939,-0.061,13.550
0.786,-0.500,0.303,-14.160,1.099,13.794
0.799,-0.489,0.307,-15.137,1.953,13.977
0.812,-0.470,0.313,-16.479,2.808,13.855
0.824,-0.447,0.317,-18.005,3.113,13.489
0.834,-0.422,0.324,-19.043,3.113,12.695
0.843,-0.397,0.338,-19.043,3.235,11.780
0.843,-0.382,0.357,-18.127,3.052,10.681
0.843,-0.369,0.372,-16.663,3.235,9.216
0.844,-0.360,0.381,-14.648,3.418,7.751
0.846,-0.358,0.384,-12.024,2.686,5.920
0.841,-0.366,0.377,-9.460,1.526,3.967
0.830,-0.375,0.366,-7.690,0.854,1.770
0.811,-0.381,0.357,-6.775,1.160,-0.061
0.797,-0.391,0.351,-6.653,2.075,-1.465
0.791,-0.396,0.347,-7.202,3.662,-2.319
0.799,-0.389,0.345,-7.996,5.432,-2.625
0.815,-0.374,0.346,-8.667,7.202,-2.502
0.832,-0.361,0.349,-8.972,8.362,-2.014
0.842,-0.349,0.347,-8.850,8.850,-1.526
0.845,-0.335,0.347,-7.996,9.155,-1.221
0.844,-0.330,0.351,-6.470,9.277,-0.916
0.844,-0.333,0.356,-4.395,9.216,-0.305
0.843,-0.342,0.356,-2.258,8.728,0.366
0.852,-0.359,0.357,-0.122,7.507,1.160
0.853,-0.383,0.355,1.282,5.615,2.380
0.853,-0.397,0.349,1.709,4.089,3.113
0.849,-0.399,0.342,1.526,3.357,3.540
0.840,-0.391,0.337,0.793,2.747,3.601
0.833,-0.386,0.336,0.244,2.502,3.662
0.825,-0.386,0.337,0.183,2.869,3.174
0.821,-0.389,0.339,0.671,3.540,2.625
0.818,-0.393,0.341,1.709,4.639,1.892
0.825,-0.401,0.342,2.380,6.287,1.099
0.842,-0.406,0.338,2.930,7.629,0.610
0.859,-0.410,0.334,3.296,8.301,0.000
0.875,-0.408,0.326,2.930,8.606,-0.671
0.903,-0.397,0.278,1.526,7.751,-1.526
0.917,-0.396,0.270,-2.319,5.859,-3.357
0.982,-0.350,0.317,-7.202,5.127,-5.432
0.957,-0.315,0.314,-10.620,2.258,-8.301
0.955,-0.303,0.335,-9.583,-0.183,-13.672
0.928,-0.318,0.344,-8.301,-1.709,-17.761
0.887,-0.355,0.346,-6.958,-3.357,-20.752
0.849,-0.385,0.330,-6.592,-3.540,-21.423
0.826,-0.415,0.320,-8.179,-3.235,-18.860
0.819,-0.414,0.349,-11.169,-2.747,-14.648
0.826,-0.381,0.387,-12.390,-1.648,-9.644
0.845,-0.350,0.414,-10.498,-1.160,-3.967
0.862,-0.347,0.422,-4.944,-2.319,1.526
0.874,-0.360,0.418,2.441,-3.357,6.104
0.881,-0.381,0.397,9.399,-4.028,8.911
0.885,-0.412,0.363,14.038,-4.639,10.681
0.870,-0.432,0.340,15.747,-5.554,11.475
0.856,-0.456,0.322,14.954,-6.714,11.719
0.839,-0.477,0.311,12.329,-7.385,11.475
0.813,-0.473,0.314,8.667,-7.812,10.864
0.787,-0.473,0.333,5.005,-8.057,10.742
0.783,-0.463,0.352,2.686,-7.812,10.925
0.787,-0.443,0.352,2.319,-6.470,10.132
0.786,-0.430,0.342,1.892,-5.310,8.850
0.784,-0.429,0.342,1.648,-4.822,6.836
0.783,-0.430,0.348,1.709,-4.333,4.578
0.779,-0.432,0.348,1.770,-3.967,2.441
0.775,-0.432,0.345,1.587,-3.357,0.732
0.775,-0.431,0.346,1.465,-2.869,-0.183
0.778,-0.434,0.350,1.831,-2.319,-0.916
0.782,-0.434,0.347,1.770,-1.465,-1.953
0.788,-0.436,0.350,1.404,-0.549,-2.625
0.791,-0.440,0.358,0.610,-0.061,-3.479
0.791,-0.447,0.364,-0.366,0.610,-4.333
0.792,-0.453,0.364,-1.038,1.221,-4.578
0.802,-0.449,0.365,-1.526,2.197,-4.639
0.816,-0.439,0.365,-2.197,3.113,-4.761
0.825,-0.424,0.365,-2.747,3.235,-5.005
0.824,-0.413,0.364,-2.869,2.747,-5.188
0.820,-0.405,0.362,-3.052,2.014,-5.005
0.815,-0.400,0.367,-3.052,1.770,-4.517
0.816,-0.397,0.374,-2.563,1.892,-3.723
0.824,-0.396,0.369,-1.282,2.502,-2.563
0.829,-0.391,0.359,-0.061,3.052,-1.038
0.839,-0.387,0.352,0.732,2.991,0.183
0.844,-0.389,0.349,0.732,1.831,1.587
0.840,-0.397,0.348,0.610,0.427,2.808
0.834,-0.404,0.356,-0.061,-0.549,4.028
0.833,-0.409,0.362,-0.671,-0.916,5.310
0.833,-0.411,0.365,-1.038,-1.160,6.714
0.832,-0.414,0.368,-1.343,-1.160,7.446
0.829,-0.417,0.370,-1.282,-0.916,7.751
0.827,-0.418,0.373,-1.160,-0.671,7.568
0.823,-0.418,0.375,-0.977,-0.488,7.446
0.815,-0.399,0.413,-0.366,-0.061,7.446
0.815,-0.390,0.409,1.831,0.549,7.812
0.826,-0.394,0.355,4.456,1.587,7.874
0.835,-0.392,0.317,4.272,2.380,7.324
0.833,-0.389,0.323,1.953,2.014,6.104
0.833,-0.392,0.344,-0.427,1.221,4.822
0.831,-0.391,0.360,-1.465,0.977,3.601
0.831,-0.394,0.368,-1.709,0.610,2.502
0.835,-0.401,0.366,-1.465,0.183,1.587
0.840,-0.410,0.358,-1.465,-0.183,0.916
0.847,-0.416,0.350,-1.770,-0.916,0.183
0.855,-0.419,0.350,-2.869,-1.404,-0.977
0.857,-0.414,0.361,-4.211,-1.953,-2.808
0.843,-0.411,0.376,-4.639,-2.625,-4.333
0.826,-0.411,0.381,-4.272,-2.686,-5.066
0.821,-0.417,0.377,-3.723,-1.953,-4.822
0.824,-0.419,0.372,-3.540,-0.916,-4.395
0.830,-0.420,0.373,-4.028,-0.366,-2.747
0.828,-0.415,0.377,-3.845,-0.793,-1.465
0.823,-0.412,0.382,-3.357,-1.526,0.000
0.819,-0.411,0.384,-2.686,-2.136,1.831
0.817,-0.409,0.386,-1.526,-2.258,3.601
0.821,-0.404,0.380,-0.305,-2.136,4.822
0.826,-0.403,0.373,0.366,-2.319,5.310
0.817,-0.400,0.372,0.488,-2.808,5.432
0.804,-0.396,0.374,0.183,-3.113,5.371
0.798,-0.393,0.375,0.061,-2.930,5.249
0.800,-0.387,0.378,0.305,-2.747,5.310
0.800,-0.380,0.381,1.221,-2.380,5.188
0.800,-0.380,0.382,1.953,-2.197,4.822
0.798,-0.388,0.381,2.319,-2.380,4.639
0.797,-0.394,0.383,2.625,-2.075,4.211
0.796,-0.396,0.384,2.686,-1.526,3.967
0.797,-0.403,0.383,2.319,-0.488,3.479
0.802,-0.405,0.382,1.831,0.427,3.052
0.811,-0.404,0.380,1.282,0.916,2.502
0.820,-0.402,0.381,0.732,1.038,1.709
0.826,-0.402,0.382,0.305,0.977,0.732
0.828,-0.404,0.384,0.183,0.732,-0.488
0.823,-0.407,0.389,0.000,0.488,-1.099
0.821,-0.409,0.392,-0.061,0.427,-1.282
0.826,-0.411,0.388,-0.183,0.671,-1.221
0.831,-0.410,0.391,-0.427,0.549,-1.099
0.834,-0.403,0.389,-0.488,0.244,-1.038
0.831,-0.402,0.381,-0.366,-0.244,-0.916
0.828,-0.404,0.376,-0.366,-0.305,-0.854
0.829,-0.401,0.376,-0.488,-0.305,-0.488
0.829,-0.398,0.380,-0.488,-0.732,0.183
0.828,-0.396,0.385,0.122,-1.160,0.977
0.825,-0.398,0.386,0.793,-1.282,1.770
0.828,-0.403,0.381,1.282,-0.916,2.563
0.823,-0.401,0.376,1.526,-0.977,3.052
0.820,-0.410,0.386,1.282,-1.526,2.686
0.813,-0.413,0.394,1.160,-1.465,2.441
0.813,-0.416,0.395,1.587,-1.221,2.258
0.818,-0.419,0.392,1.831,-0.977,1.709
0.822,-0.420,0.389,1.526,-0.854,1.038
0.822,-0.414,0.388,0.916,-0.916,0.427
0.819,-0.404,0.389,0.122,-1.160,0.061
0.812,-0.397,0.391,-0.305,-1.099,-0.061
0.806,-0.392,0.391,-0.122,-1.282,0.366
0.802,-0.389,0.392,0.549,-1.282,0.977
0.792,-0.391,0.393,1.099,-0.854,1.465
0.785,-0.395,0.400,1.892,-0.366,2.014
0.787,-0.404,0.398,2.502,0.732,2.686
0.798,-0.409,0.395,2.808,1.465,3.357
0.806,-0.404,0.393,2.747,1.587,3.479
0.812,-0.403,0.395,2.747,1.648,2.869
0.817,-0.407,0.393,3.052,1.831,1.831
0.818,-0.415,0.384,3.113,1.282,1.160
0.814,-0.418,0.378,2.808,0.793,0.793
0.812,-0.412,0.381,2.197,0.793,0.854
0.813,-0.404,0.387,1.709,0.916,1.160
0.814,-0.401,0.393,1.770,0.671,1.465
0.811,-0.407,0.395,1.770,0.671,1.709
0.805,-0.415,0.399,2.197,1.282,1.892
0.808,-0.414,0.398,2.502,1.648,2.197
0.812,-0.412,0.393,2.625,2.136,2.869
0.824,-0.415,0.393,2.808,2.319,3.052
0.831,-0.416,0.393,2.930,2.075,3.235
0.830,-0.415,0.393,3.052,1.404,2.869
0.825,-0.413,0.391,3.479,0.977,2.380
0.818,-0.406,0.390,4.028,1.038,2.136
0.813,-0.398,0.381,4.150,1.099,2.136
0.810,-0.393,0.377,4.150,1.038,2.014
0.805,-0.388,0.380,4.150,0.977,2.014
0.806,-0.389,0.390,5.005,1.526,1.709
0.821,-0.395,0.396,6.042,1.831,1.465
0.836,-0.405,0.394,7.324,1.404,1.160
0.841,-0.414,0.392,7.874,0.122,0.916
0.836,-0.424,0.390,7.751,-0.732,0.305
0.818,-0.437,0.380,7.202,-1.404,-0.244
0.817,-0.437,0.381,5.859,-1.831,-0.061
0.813,-0.440,0.368,4.456,-1.770,-0.061
0.807,-0.442,0.354,2.502,-1.404,-0.488
0.804,-0.436,0.366,-0.061,-1.221,-1.343
0.804,-0.425,0.378,-2.319,-0.977,-1.404
0.802,-0.405,0.391,-4.028,-0.732,-1.221
0.804,-0.387,0.401,-5.066,-0.488,-0.793
0.801,-0.378,0.412,-4.822,-0.305,-0.122
0.797,-0.371,0.420,-3.784,-0.366,0.305
0.797,-0.370,0.418,-2.075,0.183,0.854
0.798,-0.368,0.408,0.000,0.854,1.038
0.797,-0.373,0.397,1.465,1.099,1.343
0.800,-0.377,0.394,2.258,1.221,1.587
0.802,-0.386,0.400,2.747,1.648,1.709
0.802,-0.401,0.401,3.601,1.831,1.953
0.799,-0.419,0.402,4.150,2.441,2.380
0.800,-0.432,0.399,4.028,2.808,3.052
0.805,-0.436,0.396,3.479,3.296,3.723
0.816,-0.427,0.390,2.869,3.601,4.272
0.823,-0.417,0.385,2.380,3.662,4.211
0.826,-0.417,0.382,2.258,3.418,3.723
0.818,-0.423,0.385,2.319,2.808,3.235
0.811,-0.425,0.389,2.441,2.441,3.296
0.812,-0.421,0.388,2.747,2.319,3.479
0.813,-0.418,0.386,3.479,2.319,3.662
0.810,-0.422,0.380,4.028,2.258,3.479
0.805,-0.434,0.373,3.906,2.197,3.296
0.803,-0.440,0.373,2.991,2.075,3.540
0.812,-0.437,0.385,1.587,2.075,3.662
0.822,-0.430,0.396,0.916,2.136,3.296
0.829,-0.425,0.396,0.793,2.441,2.258
0.832,-0.417,0.391,1.038,2.319,0.916
0.831,-0.415,0.386,0.854,2.075,-0.183
0.828,-0.416,0.387,0.732,1.770,-1.282
0.822,-0.412,0.389,0.916,1.343,-1.831
0.819,-0.407,0.387,1.343,0.977,-1.648
0.819,-0.405,0.385,1.770,0.732,-0.977
0.822,-0.401,0.386,1.831,0.732,-0.244
0.821,-0.404,0.390,2.136,0.366,0.183
0.822,-0.408,0.396,2.686,-0.244,0.366
0.826,-0.411,0.394,3.235,-0.488,0.366
0.824,-0.415,0.383,3.906,-0.488,-0.366
0.815,-0.421,0.368,3.784,-0.488,-1.526
0.807,-0.419,0.366,2.441,-0.488,-2.319
0.801,-0.416,0.374,0.610,-0.549,-2.747
0.806,-0.391,0.395,-1.221,-0.427,-2.319
0.813,-0.391,0.395,-0.732,-0.061,-2.441
0.814,-0.396,0.396,0.061,-0.183,-2.991
0.813,-0.407,0.394,1.038,-0.122,-3.845
0.807,-0.423,0.389,1.526,-0.427,-4.333
0.797,-0.434,0.393,1.160,-0.854,-4.028
0.796,-0.441,0.407,1.282,-0.854,-2.991
0.797,-0.432,0.424,2.319,-0.671,-1.892
0.809,-0.424,0.412,4.944,0.000,-1.038
0.839,-0.416,0.405,7.935,0.061,-0.122
0.848,-0.417,0.384,11.841,-1.038,-0.610
0.854,-0.428,0.386,15.991,-1.953,-1.648
0.839,-0.420,0.384,20.813,-2.991,-2.502
0.842,-0.445,0.380,26.184,-3.540,-2.686
0.802,-0.449,0.335,27.832,-5.188,-1.282
0.801,-0.454,0.349,26.611,-6.226,1.648
0.799,-0.447,0.369,24.475,-7.324,4.822
0.806,-0.442,0.378,22.644,-8.301,7.019
0.817,-0.443,0.372,20.325,-9.033,7.935
0.823,-0.446,0.379,17.090,-9.216,7.629
0.815,-0.451,0.393,13.733,-9.155,5.859
0.798,-0.462,0.399,10.864,-8.911,3.540
0.791,-0.482,0.405,9.033,-7.629,1.404
0.791,-0.484,0.407,8.118,-5.981,-0.244
0.800,-0.485,0.401,7.629,-4.822,-1.770
0.802,-0.459,0.383,7.385,-3.662,-4.150
0.806,-0.415,0.373,7.080,-3.296,-6.104
0.806,-0.386,0.365,7.263,-3.662,-8.301
0.795,-0.383,0.368,7.935,-4.578,-10.071
0.780,-0.392,0.376,8.667,-5.310,-11.047
0.757,-0.404,0.387,9.460,-5.859,-11.108
0.733,-0.421,0.403,9.644,-6.165,-9.827
0.724,-0.440,0.420,9.827,-5.859,-7.507
0.736,-0.448,0.429,10.376,-5.005,-5.554
0.756,-0.460,0.436,10.864,-3.235,-4.517
0.762,-0.475,0.429,11.108,-1.587,-4.456
0.756,-0.487,0.415,10.132,0.000,-4.639
0.751,-0.487,0.402,8.423,1.404,-4.944
0.757,-0.476,0.388,6.165,3.601,-5.249
0.767,-0.471,0.381,4.028,5.066,-5.310
0.783,-0.463,0.388,1.892,5.127,-5.066
0.794,-0.447,0.393,0.610,4.883,-4.883
0.795,-0.429,0.392,0.305,4.211,-5.005
0.793,-0.416,0.388,0.854,3.906,-4.822
0.787,-0.418,0.389,1.648,3.540,-3.906
0.778,-0.430,0.393,2.380,2.991,-2.869
0.774,-0.455,0.396,3.113,2.625,-0.977
0.774,-0.474,0.400,3.967,2.808,1.221
0.780,-0.490,0.393,4.517,3.052,2.930
0.781,-0.504,0.387,5.371,3.296,4.333
0.779,-0.509,0.386,5.676,3.479,5.127
0.778,-0.509,0.383,6.042,3.906,5.615
0.779,-0.515,0.382,6.042,4.333,6.409
0.778,-0.510,0.382,6.165,4.883,7.080
0.785,-0.501,0.376,6.287,5.249,7.446
0.790,-0.492,0.371,6.165,5.249,7.568
0.796,-0.472,0.370,5.737,4.883,7.324
0.807,-0.464,0.375,5.371,4.272,6.836
0.807,-0.464,0.376,5.310,3.174,6.226
0.805,-0.463,0.377,4.944,2.075,5.554
0.800,-0.460,0.378,3.967,1.343,4.761
0.795,-0.474,0.383,2.930,0.977,3.662
0.788,-0.484,0.394,2.380,1.343,2.197
0.787,-0.500,0.389,2.136,2.075,0.732
0.790,-0.505,0.378,1.465,2.502,-0.427
0.796,-0.500,0.364,0.305,2.380,-1.465
0.810,-0.486,0.359,-0.793,2.319,-2.136
0.823,-0.472,0.365,-1.465,1.770,-3.113
0.830,-0.457,0.371,-1.709,0.488,-4.028
0.823,-0.449,0.384,-1.404,-0.671,-5.310
0.792,-0.445,0.400,-0.244,-1.404,-6.226
0.753,-0.453,0.391,1.526,-1.160,-5.920
0.731,-0.467,0.377,2.563,-0.549,-4.028
0.737,-0.459,0.393,2.380,0.305,-0.732
0.760,-0.451,0.406,2.930,1.526,2.197
0.785,-0.461,0.395,4.944,1.953,3.601
0.790,-0.487,0.381,6.592,1.953,3.662
0.787,-0.499,0.377,7.141,1.526,2.625
0.784,-0.502,0.374,6.836,1.465,1.770
0.795,-0.507,0.369,6.226,1.526,0.610
0.789,-0.492,0.354,5.066,1.099,-0.977
0.782,-0.476,0.343,3.845,0.671,-2.258
0.780,-0.475,0.344,2.625,0.488,-2.869
0.772,-0.476,0.355,1.709,0.366,-3.357
0.771,-0.481,0.376,1.221,0.122,-3.113
0.770,-0.488,0.391,1.587,-0.366,-2.625
0.769,-0.500,0.396,2.502,-0.122,-2.136
0.763,-0.506,0.398,3.601,0.427,-2.136
0.763,-0.509,0.393,4.089,0.916,-1.221
0.774,-0.515,0.381,4.700,1.099,-0.122
0.786,-0.518,0.370,4.761,1.587,0.122
0.796,-0.521,0.359,3.967,2.014,-0.122
0.794,-0.519,0.355,3.052,2.014,-0.793
0.782,-0.520,0.364,1.831,1.831,-1.526
0.773,-0.513,0.364,0.488,1.831,-0.732
0.785,-0.495,0.364,-1.038,1.831,0.671
0.800,-0.472,0.367,-1.770,1.770,0.854
0.802,-0.475,0.367,-1.404,1.160,0.244
0.789,-0.485,0.363,-1.221,0.671,-0.854
0.768,-0.495,0.366,-1.038,0.244,-1.465
0.753,-0.500,0.369,-1.587,0.244,-1.038
0.761,-0.498,0.378,-2.014,0.793,-0.122
0.773,-0.485,0.393,-1.953,1.404,0.244
0.775,-0.479,0.391,-1.465,1.648,-0.305
0.760,-0.485,0.382,-1.221,2.075,-0.916
0.746,-0.440,0.472,-1.343,2.869,-0.366
0.758,-0.414,0.471,1.465,4.089,1.160
0.766,-0.396,0.426,5.432,5.371,2.563
0.796,-0.399,0.366,6.897,5.859,3.479
0.817,-0.401,0.348,5.920,5.859,3.174
0.818,-0.419,0.349,3.540,5.005,2.258
0.817,-0.444,0.346,1.282,4.150,1.709
0.820,-0.464,0.344,-0.671,2.808,1.587
0.825,-0.477,0.364,-2.380,1.343,1.770
0.826,-0.485,0.389,-3.113,-0.305,1.465
0.812,-0.496,0.388,-3.174,-0.854,0.732
0.785,-0.515,0.376,-3.357,-1.343,0.549
0.767,-0.525,0.386,-3.845,-1.465,1.282
0.765,-0.519,0.401,-3.906,-0.793,2.563
0.777,-0.516,0.399,-3.174,0.000,3.845
0.810,-0.500,0.372,-0.916,0.916,3.357
0.817,-0.504,0.360,-0.977,0.854,1.343
0.813,-0.511,0.363,-1.160,0.183,-0.732
0.809,-0.510,0.371,-1.770,-0.854,-2.441
0.807,-0.500,0.376,-2.380,-1.526,-3.662
0.794,-0.492,0.380,-2.502,-2.197,-4.272
0.775,-0.494,0.388,-2.136,-2.930,-4.211
0.732,-0.484,0.400,-1.587,-3.296,-2.808
0.778,-0.499,0.399,-0.488,-3.357,-0.366
0.682,-0.472,0.411,0.916,-2.991,2.502
0.787,-0.486,0.381,2.197,-2.197,5.310
0.701,-0.463,0.403,2.869,-1.343,7.385
0.791,-0.464,0.361,2.991,-0.916,8.606
0.763,-0.457,0.407,2.991,-0.366,7.935
0.766,-0.443,0.360,2.869,0.183,6.714
0.828,-0.465,0.411,2.869,0.427,4.578
0.727,-0.443,0.370,3.113,0.183,2.075
0.861,-0.511,0.393,2.869,-0.061,-0.122
0.690,-0.488,0.377,2.075,-0.305,-1.953
0.864,-0.527,0.375,0.854,-0.244,-2.991
0.702,-0.479,0.401,-0.732,-0.793,-3.540
0.837,-0.508,0.350,-1.587,-0.732,-4.089
0.719,-0.482,0.403,-3.296,-1.221,-4.395
0.765,-0.486,0.355,-5.066,-1.648,-3.174
0.774,-0.493,0.426,-5.737,-1.282,-2.014
0.719,-0.463,0.386,-5.737,-0.732,-0.488
0.829,-0.494,0.426,-4.761,-0.549,0.793
0.686,-0.448,0.390,-3.845,-0.305,1.892
0.865,-0.494,0.405,-2.686,-0.183,2.808
0.688,-0.459,0.406,-1.831,-0.549,3.052
0.865,-0.503,0.382,-1.282,-0.244,3.174
0.727,-0.488,0.417,-1.160,-0.671,2.502
0.823,-0.509,0.369,-1.526,-1.465,2.075
0.765,-0.507,0.418,-2.258,-1.953,1.404
0.741,-0.489,0.362,-3.296,-2.014,1.221
0.802,-0.506,0.417,-4.150,-1.404,1.221
0.688,-0.459,0.377,-4.333,-0.916,1.465
0.847,-0.490,0.409,-3.662,-0.488,2.197
0.679,-0.444,0.400,-2.869,-0.549,2.869
0.867,-0.486,0.399,-1.892,-1.099,3.662
0.695,-0.450,0.421,-1.221,-1.892,4.028
0.838,-0.479,0.387,-0.427,-1.892,4.395
0.729,-0.470,0.432,0.000,-1.831,4.517
0.775,-0.474,0.374,0.366,-1.282,4.883
0.781,-0.490,0.430,0.916,-0.854,4.517
0.724,-0.472,0.376,1.160,-0.549,4.578
0.845,-0.513,0.416,1.343,-0.244,3.967
0.687,-0.473,0.381,0.732,-0.488,3.235
0.867,-0.518,0.399,0.305,-0.854,2.869
0.678,-0.474,0.406,-0.488,-1.282,2.380
0.848,-0.510,0.390,-0.732,-1.160,2.197
0.694,-0.478,0.428,-1.160,-1.160,1.892
0.797,-0.485,0.379,-1.221,-0.671,2.258
0.741,-0.480,0.434,-1.099,-0.305,2.441
0.736,-0.460,0.380,-1.099,0.122,2.930
0.810,-0.481,0.439,-0.793,0.854,3.052
0.705,-0.447,0.393,-0.122,0.671,3.052
0.864,-0.492,0.425,0.732,0.549,2.930
0.689,-0.454,0.406,0.977,-0.061,2.625
0.878,-0.502,0.405,0.854,-0.549,2.380
0.696,-0.469,0.420,0.244,-0.916,1.709
0.849,-0.503,0.386,-0.610,-1.221,1.343
0.737,-0.494,0.432,-1.587,-1.709,0.549
0.802,-0.497,0.376,-2.930,-2.441,0.427
0.798,-0.509,0.433,-4.456,-3.784,0.183
0.729,-0.475,0.377,-5.737,-4.944,-0.061
0.849,-0.494,0.424,-6.836,-4.761,-0.366
0.706,-0.445,0.391,-7.385,-5.188,0.000
0.888,-0.485,0.406,-7.263,-6.409,0.854
0.692,-0.445,0.416,-7.385,-7.568,1.221
0.872,-0.485,0.398,-7.446,-7.812,1.526
0.718,-0.470,0.444,-7.446,-8.545,2.136
0.819,-0.487,0.389,-8.179,-10.071,3.479
0.750,-0.490,0.455,-9.644,-11.292,4.089
0.747,-0.489,0.401,-10.986,-11.536,4.761
0.794,-0.511,0.466,-12.329,-11.292,4.883
0.691,-0.482,0.418,-13.733,-11.597,5.310
0.840,-0.523,0.451,-14.954,-14.221,6.348
0.656,-0.467,0.440,-16.235,-16.724,7.202
0.875,-0.480,0.429,-17.883,-17.212,7.812
0.725,-0.413,0.460,-18.921,-19.470,8.179
0.892,-0.416,0.418,-18.799,-24.231,8.667
0.797,-0.409,0.482,-18.188,-29.053,8.301
0.868,-0.420,0.421,-17.517,-34.973,8.545
0.875,-0.455,0.490,-17.090,-42.847,9.338
0.810,-0.447,0.443,-18.372,-51.025,10.437
0.913,-0.505,0.487,-21.301,-57.678,11.047
0.774,-0.479,0.474,-26.123,-62.256,10.010
0.930,-0.526,0.496,-31.494,-67.505,8.606
0.728,-0.486,0.514,-37.537,-71.350,6.287
0.890,-0.515,0.495,-43.152,-74.524,3.296
0.743,-0.488,0.564,-48.523,-78.003,0.183
0.889,-0.472,0.521,-54.077,-82.275,-1.526
0.817,-0.461,0.594,-58.350,-89.722,-1.953
0.777,-0.443,0.542,-61.523,-96.069,-1.953
0.789,-0.483,0.600,-64.941,-97.412,-3.235
0.630,-0.451,0.574,-69.336,-95.581,-4.272
0.765,-0.476,0.623,-73.242,-92.590,-3.845
0.596,-0.400,0.649,-76.172,-91.064,-1.404
0.762,-0.410,0.640,-77.026,-94.238,4.517
0.597,-0.372,0.689,-76.599,-97.473,10.681
0.721,-0.384,0.651,-75.562,-101.501,16.602
0.576,-0.377,0.726,-74.463,-105.347,21.667
0.577,-0.372,0.680,-73.730,-106.201,25.635
0.551,-0.361,0.745,-74.219,-102.600,27.466
0.476,-0.281,0.708,-74.402,-97.168,27.405
0.552,-0.268,0.759,-71.716,-93.872,27.039
0.362,-0.185,0.778,-68.176,-89.600,27.161
0.541,-0.217,0.787,-64.026,-82.581,28.076
0.341,-0.193,0.794,-59.143,-78.735,31.372
0.461,-0.234,0.746,-55.298,-76.843,36.377
0.262,-0.224,0.790,-53.833,-70.557,39.368
0.382,-0.234,0.730,-53.955,-60.730,39.795
0.330,-0.215,0.801,-54.016,-54.443,37.781
0.354,-0.171,0.756,-53.833,-52.307,35.217
0.426,-0.181,0.826,-53.711,-51.147,31.372
0.343,-0.114,0.791,-53.406,-49.744,26.978
0.478,-0.109,0.821,-51.147,-48.767,22.583
0.275,-0.034,0.830,-47.668,-47.302,18.066
0.427,-0.054,0.821,-43.945,-43.396,14.160
0.298,-0.099,0.922,2.686,5.005,1.160
0.498,-0.138,0.902,4.639,5.371,0.793
0.324,-0.118,0.941,6.409,5.737,0.305
0.481,-0.145,0.872,7.690,5.981,0.305
0.381,-0.153,0.922,8.362,6.104,-0.183
0.433,-0.150,0.835,7.629,5.920,-0.183
0.447,-0.176,0.889,6.348,5.249,-0.671
0.375,-0.141,0.829,4.456,4.272,-0.977
0.498,-0.177,0.871,2.441,2.991,-0.916
0.324,-0.126,0.857,0.244,1.343,-0.549
0.510,-0.161,0.868,-1.343,0.305,-0.366
0.306,-0.107,0.899,-2.502,-0.427,-0.244
0.489,-0.122,0.874,-2.502,-0.305,0.122
0.325,-0.092,0.937,-1.526,-0.061,0.122
0.434,-0.095,0.877,0.183,1.038,0.732
0.380,-0.105,0.939,2.319,2.075,0.916
0.373,-0.088,0.861,4.211,2.319,1.465
0.443,-0.129,0.908,5.493,2.930,1.709
0.329,-0.096,0.850,5.432,3.540,1.831
0.498,-0.144,0.871,5.066,3.235,2.075
0.307,-0.100,0.865,3.906,2.502,2.380
0.514,-0.142,0.856,2.930,2.441,2.502
0.322,-0.109,0.895,2.502,1.709,2.502
0.480,-0.126,0.850,2.197,0.977,2.747
0.360,-0.117,0.913,1.953,0.610,2.441
0.417,-0.109,0.847,2.136,0.305,2.075
0.414,-0.132,0.914,2.197,0.427,1.404
0.353,-0.102,0.853,2.380,0.427,0.854
0.471,-0.145,0.898,2.686,0.305,0.305
0.306,-0.099,0.868,2.686,-0.061,0.305
0.494,-0.147,0.877,2.747,0.610,0.244
0.292,-0.106,0.888,2.502,1.160,0.122
0.479,-0.141,0.857,2.502,1.343,0.549
0.320,-0.116,0.902,2.441,1.770,0.854
0.448,-0.118,0.842,2.502,1.465,1.465
0.373,-0.113,0.916,3.113,0.916,2.014
0.380,-0.093,0.851,3.601,1.404,2.625
0.433,-0.130,0.912,4.639,2.136,2.625
0.314,-0.093,0.863,5.432,2.380,2.625
0.470,-0.142,0.888,5.676,3.052,2.563
0.292,-0.104,0.869,5.249,3.174,2.197
0.496,-0.149,0.855,4.822,2.502,2.197
0.303,-0.111,0.890,4.395,1.526,1.892
0.474,-0.128,0.846,3.845,2.014,1.465
0.353,-0.120,0.910,4.089,2.563,0.977
0.429,-0.117,0.844,4.883,2.197,1.038
0.417,-0.143,0.908,5.798,1.709,0.793
0.367,-0.121,0.844,5.859,1.465,0.732
0.468,-0.169,0.889,5.554,1.404,0.244
0.310,-0.131,0.856,4.639,1.282,-0.244
0.492,-0.181,0.868,3.662,1.587,-0.793
0.291,-0.139,0.878,2.625,1.404,-1.282
0.484,-0.172,0.851,1.831,1.770,-1.160
0.313,-0.143,0.901,1.038,1.831,-1.221
0.444,-0.150,0.846,0.732,2.014,-0.549
0.367,-0.148,0.915,0.366,2.075,0.122
0.385,-0.124,0.854,0.549,2.136,1.343
0.427,-0.151,0.919,1.282,2.380,2.441
0.328,-0.115,0.868,1.892,2.869,3.906
0.483,-0.161,0.896,2.747,3.723,4.700
0.307,-0.117,0.876,3.479,3.967,5.432
0.511,-0.163,0.866,3.784,3.845,5.859
0.322,-0.126,0.889,3.113,3.723,5.615
0.501,-0.153,0.843,2.625,3.418,5.249
0.367,-0.142,0.901,2.197,2.930,4.395
0.451,-0.141,0.835,1.526,2.258,3.845
0.424,-0.157,0.905,1.221,1.770,2.625
0.386,-0.127,0.842,0.671,1.343,1.587
0.478,-0.165,0.895,0.427,1.282,0.549
0.327,-0.118,0.859,0.183,0.610,-0.305
0.502,-0.161,0.878,0.671,0.854,-0.671
0.298,-0.116,0.881,0.793,0.977,-0.671
0.491,-0.154,0.858,1.343,1.221,-0.122
0.310,-0.123,0.895,1.892,1.282,-0.061
0.453,-0.136,0.839,2.136,1.465,0.793
0.360,-0.138,0.903,2.380,1.343,1.343
0.390,-0.125,0.839,2.136,1.038,2.197
0.418,-0.153,0.907,1.831,1.038,2.808
0.328,-0.117,0.857,1.526,1.465,3.113
0.472,-0.162,0.895,1.526,1.831,3.357
0.296,-0.115,0.870,1.404,1.526,3.357
0.494,-0.160,0.865,1.465,1.587,3.479
0.296,-0.120,0.879,1.282,1.831,2.991
0.477,-0.145,0.838,0.854,2.136,2.502
0.330,-0.127,0.892,0.732,2.136,1.709
0.425,-0.128,0.830,0.793,2.319,1.465
0.389,-0.141,0.901,1.038,2.808,1.038
0.367,-0.117,0.838,1.099,3.174,1.160
0.455,-0.155,0.895,1.221,3.784,1.343
0.324,-0.114,0.859,1.038,3.723,1.648
0.500,-0.158,0.879,1.160,4.089,2.197
0.306,-0.116,0.882,0.854,4.089,2.380
0.511,-0.155,0.863,0.488,4.211,2.930
0.332,-0.122,0.905,0.366,4.150,2.869
0.484,-0.139,0.850,0.305,4.150,3.418
0.389,-0.137,0.912,0.488,3.906,3.601
0.435,-0.123,0.841,0.549,3.479,4.028
0.454,-0.144,0.903,0.793,3.113,3.967
0.376,-0.108,0.847,0.854,2.869,3.845
0.509,-0.150,0.888,1.099,2.930,3.296
0.338,-0.105,0.864,1.404,2.380,2.747
0.532,-0.150,0.867,1.831,1.953,2.136
0.334,-0.111,0.886,2.014,1.709,1.038
0.517,-0.142,0.855,2.136,1.465,0.244
0.359,-0.124,0.907,2.441,1.099,-0.305
0.460,-0.129,0.844,2.808,1.038,-0.549
0.411,-0.144,0.909,2.991,0.916,-0.916
0.395,-0.123,0.841,2.991,0.488,-0.549
0.464,-0.161,0.897,2.686,0.122,-0.183
0.334,-0.122,0.853,1.953,-0.305,0.244
0.496,-0.168,0.883,1.648,-0.244,0.854
0.299,-0.120,0.878,1.221,0.000,1.343
0.498,-0.160,0.864,1.404,0.549,2.014
0.312,-0.126,0.892,1.465,0.916,2.319
0.472,-0.150,0.839,1.709,0.732,3.174
0.359,-0.148,0.899,1.587,0.793,3.418
0.422,-0.143,0.829,1.282,0.854,3.479
0.430,-0.166,0.894,0.916,0.732,2.991
0.363,-0.129,0.837,0.305,0.061,2.747
0.484,-0.167,0.885,-0.244,0.183,2.075
0.299,-0.111,0.883,-1.404,0.244,0.000
0.490,-0.141,0.853,-1.099,0.366,0.000
0.326,-0.115,0.905,-0.610,0.244,-0.061
0.442,-0.120,0.846,0.244,0.854,0.549
0.377,-0.130,0.910,1.282,1.526,0.854
0.382,-0.111,0.839,1.648,1.892,1.587
0.446,-0.146,0.896,2.075,2.075,2.197
0.329,-0.106,0.849,2.136,1.831,2.991
0.490,-0.151,0.881,1.831,2.686,3.418
0.303,-0.105,0.873,1.587,3.113,3.540
0.509,-0.151,0.864,2.014,3.479,3.845
0.322,-0.118,0.891,2.014,2.869,3.967
0.492,-0.143,0.841,2.075,2.747,4.272
0.370,-0.135,0.898,1.709,2.197,3.784
0.443,-0.129,0.829,1.038,1.831,3.784
0.436,-0.147,0.897,0.732,1.221,3.174
0.381,-0.112,0.841,0.488,0.610,2.930
0.487,-0.150,0.897,0.549,0.366,2.441
0.328,-0.105,0.868,1.099,0.427,1.587
0.512,-0.155,0.882,2.136,0.732,1.038
0.309,-0.115,0.884,2.869,0.854,0.366
0.504,-0.158,0.854,3.113,1.221,-0.061
0.334,-0.140,0.892,2.869,1.221,-0.671
0.463,-0.152,0.834,2.380,1.221,-0.610
0.390,-0.156,0.903,1.648,1.282,-0.671
0.406,-0.135,0.839,1.099,1.160,-0.122
0.448,-0.164,0.902,0.732,0.916,0.793
0.342,-0.121,0.852,0.305,0.977,1.526
0.491,-0.162,0.886,0.244,1.221,2.136
0.304,-0.111,0.870,0.183,1.038,2.869
0.507,-0.154,0.864,0.244,1.526,3.357
0.313,-0.115,0.887,0.244,1.404,3.723
0.487,-0.138,0.845,0.427,1.099,4.333
0.351,-0.127,0.901,0.671,0.977,4.089
0.430,-0.126,0.837,0.671,1.404,3.662
0.415,-0.145,0.903,0.916,1.953,2.930
0.374,-0.114,0.839,0.854,1.770,2.563
0.473,-0.151,0.887,0.977,1.282,2.075
0.326,-0.104,0.850,0.671,1.160,1.648
0.510,-0.148,0.870,0.671,1.343,1.343
0.309,-0.102,0.877,0.854,1.099,1.099
0.503,-0.140,0.857,1.404,1.282,1.221
0.324,-0.113,0.900,1.953,1.526,0.854
0.458,-0.129,0.846,2.380,2.136,0.854
0.372,-0.134,0.909,2.869,2.747,0.793
0.404,-0.123,0.839,2.991,2.991,1.343
0.442,-0.155,0.899,2.991,3.174,1.831
0.353,-0.117,0.841,2.441,3.052,2.319
0.499,-0.164,0.879,1.831,2.808,2.869
0.319,-0.116,0.860,1.282,2.502,3.540
0.523,-0.161,0.860,0.793,2.625,3.784
0.326,-0.118,0.884,0.671,1.892,3.540
0.505,-0.141,0.844,0.977,1.343,3.784
0.360,-0.124,0.899,1.038,1.099,3.357
0.447,-0.127,0.839,1.221,0.916,2.991
0.414,-0.143,0.907,1.648,1.282,2.075
0.387,-0.120,0.844,1.953,1.221,1.648
0.480,-0.160,0.897,2.319,0.916,1.160
0.341,-0.118,0.855,2.441,0.549,0.671
0.517,-0.164,0.873,2.441,0.732,0.488
0.318,-0.121,0.872,1.953,0.488,0.244
0.510,-0.162,0.854,1.343,0.427,0.366
0.328,-0.133,0.893,0.793,0.549,0.366
0.478,-0.145,0.844,0.488,0.610,0.793
0.377,-0.137,0.911,0.488,0.000,1.099
0.413,-0.122,0.846,0.488,0.000,1.648
0.435,-0.150,0.907,1.099,0.977,1.709
0.347,-0.116,0.848,1.648,1.404,1.770
0.481,-0.157,0.886,1.953,2.014,1.526
0.308,-0.111,0.859,1.770,2.197,1.343
0.512,-0.155,0.860,1.343,2.380,1.343
0.320,-0.109,0.878,1.282,1.465,1.770
0.499,-0.137,0.848,1.831,0.671,2.747
0.348,-0.122,0.901,2.136,0.793,3.174
0.447,-0.130,0.838,2.625,1.465,3.418
0.400,-0.145,0.903,3.174,1.587,2.930
0.389,-0.121,0.835,2.808,1.953,2.747
0.475,-0.156,0.890,2.319,1.526,2.319
0.345,-0.110,0.850,1.587,0.244,2.319
0.516,-0.156,0.879,1.160,0.427,2.197
0.318,-0.113,0.877,0.977,0.488,1.892
0.515,-0.156,0.865,1.343,0.854,1.709
0.324,-0.124,0.896,1.526,1.099,1.282
0.475,-0.144,0.841,1.648,1.465,1.221
0.370,-0.141,0.898,1.343,1.587,0.732
0.421,-0.130,0.829,0.977,1.221,0.854
0.430,-0.154,0.896,1.160,0.977,0.916
0.359,-0.117,0.841,1.099,0.916,1.587
0.484,-0.160,0.888,1.526,0.854,2.136
0.312,-0.114,0.861,1.587,0.854,2.502
0.506,-0.161,0.870,1.648,1.343,2.747
0.307,-0.121,0.885,1.892,1.465,2.502
0.498,-0.153,0.851,1.831,1.648,2.625
0.343,-0.132,0.898,1.770,1.465,2.197
0.455,-0.138,0.834,1.526,1.465,2.197
0.401,-0.148,0.900,1.343,1.587,1.953
0.393,-0.126,0.834,1.038,1.465,2.014
0.461,-0.159,0.892,0.977,1.465,1.953
0.340,-0.114,0.848,0.793,1.282,1.892
0.505,-0.157,0.878,0.671,1.221,1.953
0.313,-0.110,0.874,0.610,0.916,2.075
0.513,-0.153,0.863,1.038,1.221,2.075
0.322,-0.122,0.895,1.526,1.465,1.831
0.480,-0.143,0.846,1.709,1.892,1.770
0.371,-0.137,0.903,1.770,2.197,1.343
0.434,-0.125,0.834,1.953,2.075,1.343
0.442,-0.148,0.898,1.892,1.526,1.404
0.375,-0.114,0.838,1.526,0.732,1.709
0.493,-0.156,0.886,1.160,0.793,1.648
0.327,-0.107,0.860,0.732,0.549,1.404
0.515,-0.152,0.873,0.732,0.977,1.465
0.310,-0.108,0.886,1.099,1.099,1.282
0.501,-0.142,0.858,1.587,1.465,1.221
0.341,-0.122,0.901,2.075,1.709,1.282
0.460,-0.134,0.839,2.625,1.770,1.709
0.401,-0.146,0.901,2.686,1.587,1.831
0.401,-0.128,0.831,2.441,1.465,2.075
0.463,-0.160,0.889,2.197,1.587,2.075
0.344,-0.119,0.845,1.648,1.221,1.770
0.504,-0.163,0.878,1.282,1.404,1.770
0.318,-0.122,0.890,1.404,1.038,1.465
0.482,-0.148,0.845,1.709,1.343,1.709
0.364,-0.143,0.901,1.770,1.221,1.465
0.433,-0.138,0.834,1.831,0.916,1.709
0.429,-0.160,0.899,1.892,0.916,1.709
0.374,-0.127,0.838,1.465,0.854,1.770
0.486,-0.164,0.886,1.343,0.977,1.770
0.326,-0.114,0.858,1.038,0.549,1.709
0.511,-0.162,0.872,1.038,0.793,1.831
0.307,-0.121,0.881,1.038,0.793,1.709
0.500,-0.159,0.853,1.099,1.160,1.831
0.338,-0.135,0.895,0.916,1.282,1.526
0.462,-0.142,0.837,0.610,1.343,1.709
0.391,-0.144,0.902,0.244,1.465,1.709
0.400,-0.121,0.837,-0.122,1.648,1.892
0.453,-0.147,0.899,0.183,1.648,2.136
0.342,-0.101,0.850,0.732,1.343,2.380
0.500,-0.146,0.882,1.404,1.526,2.502
0.312,-0.104,0.869,2.075,1.404,2.747
0.513,-0.151,0.862,2.625,1.648,2.930
0.322,-0.120,0.886,2.930,1.526,2.502
0.493,-0.149,0.840,3.052,1.770,2.197
0.371,-0.142,0.895,2.625,1.831,1.343
0.446,-0.137,0.829,1.953,1.587,1.160
0.431,-0.152,0.897,1.465,1.282,0.854
0.380,-0.121,0.840,1.160,1.099,0.916
0.482,-0.161,0.894,1.160,1.099,0.977
0.325,-0.114,0.864,1.160,0.916,1.221
0.510,-0.160,0.879,1.526,1.282,1.526
0.310,-0.116,0.883,1.892,1.282,1.953
0.505,-0.155,0.853,2.380,1.648,2.441
0.338,-0.131,0.892,2.441,1.709,2.686
0.472,-0.144,0.833,2.319,1.282,2.991
0.397,-0.153,0.896,1.892,0.977,2.930
0.418,-0.136,0.828,0.916,0.732,2.869
0.461,-0.163,0.892,0.610,0.183,2.380
0.354,-0.119,0.846,-0.183,-0.305,2.014
0.499,-0.163,0.886,-0.305,0.183,1.282
0.311,-0.115,0.872,-0.061,0.366,0.854
0.506,-0.155,0.869,0.549,0.854,0.488
0.310,-0.113,0.893,1.038,1.099,0.183
0.482,-0.139,0.847,1.892,1.709,0.488
0.346,-0.130,0.900,2.502,1.892,0.549
0.430,-0.133,0.832,2.502,2.380,1.160
0.416,-0.153,0.895,2.319,2.686,1.892
0.380,-0.126,0.829,1.831,2.136,2.563
0.476,-0.162,0.884,1.587,1.282,2.747
0.333,-0.114,0.849,0.549,1.282,3.113
0.516,-0.158,0.871,0.244,1.343,3.235
0.317,-0.111,0.876,0.244,0.671,3.235
0.514,-0.147,0.858,0.610,0.732,3.357
0.340,-0.120,0.900,1.160,0.977,2.563
0.479,-0.136,0.845,1.831,1.099,2.197
0.393,-0.139,0.907,2.258,1.282,1.343
0.419,-0.127,0.837,2.502,1.160,0.916
0.454,-0.158,0.896,2.625,1.160,0.488
0.358,-0.122,0.840,2.136,0.854,0.183
0.503,-0.169,0.877,1.770,0.671,0.122
0.323,-0.123,0.861,1.221,0.000,0.366
0.517,-0.165,0.868,0.916,0.061,0.916
0.318,-0.123,0.889,0.549,0.488,1.221
0.492,-0.149,0.850,0.549,0.793,1.953
0.348,-0.132,0.902,0.549,0.671,2.258
0.440,-0.135,0.836,0.488,0.977,2.869
0.416,-0.148,0.898,0.549,1.099,2.930
0.383,-0.115,0.836,0.610,0.549,3.174
0.470,-0.150,0.894,0.916,0.305,3.113
0.329,-0.108,0.858,1.282,0.854,2.686
0.504,-0.156,0.880,2.136,1.221,2.319
0.307,-0.114,0.875,2.869,1.221,1.770
0.508,-0.154,0.850,3.113,1.831,1.343
0.332,-0.127,0.883,2.747,1.465,0.549
0.475,-0.142,0.829,2.319,0.977,0.427
0.381,-0.143,0.896,1.831,0.793,0.183
0.412,-0.132,0.832,1.465,0.793,0.366
0.439,-0.159,0.900,1.282,0.977,0.610
0.349,-0.120,0.849,1.099,0.793,1.221
0.485,-0.164,0.889,1.282,1.038,1.648
0.314,-0.118,0.867,1.099,1.343,1.953
0.516,-0.163,0.867,1.099,1.587,2.686
0.318,-0.120,0.887,1.160,1.343,3.052
0.502,-0.147,0.849,1.282,1.770,3.235
0.355,-0.132,0.900,1.770,1.831,3.235
0.450,-0.137,0.835,1.953,1.648,3.418
0.411,-0.152,0.901,2.014,2.075,2.869
0.392,-0.127,0.837,1.709,1.770,2.502
0.477,-0.163,0.892,1.709,1.587,2.075
0.342,-0.117,0.849,1.587,1.221,1.648
0.515,-0.163,0.871,1.587,1.160,1.343
0.320,-0.117,0.868,1.404,0.427,1.099
0.515,-0.158,0.853,1.282,0.488,1.160
0.328,-0.127,0.890,1.038,0.183,0.916
0.475,-0.146,0.841,1.221,0.366,0.793
0.370,-0.145,0.903,1.038,0.488,0.610
0.416,-0.133,0.836,0.916,0.610,0.977
0.432,-0.157,0.900,0.793,0.977,1.160
0.356,-0.121,0.843,0.549,1.038,1.709
0.487,-0.161,0.889,0.427,1.221,2.014
0.316,-0.114,0.865,0.488,1.099,2.258
0.510,-0.159,0.870,0.732,1.648,2.747
0.310,-0.118,0.882,1.160,1.648,2.686
0.498,-0.152,0.846,1.465,2.258,2.930
0.352,-0.134,0.893,1.343,2.014,2.686
0.458,-0.134,0.834,1.343,1.709,2.869
0.409,-0.141,0.903,1.221,1.526,2.625
0.396,-0.117,0.842,1.343,1.526,2.319
0.468,-0.155,0.900,2.075,1.465,2.075
0.339,-0.114,0.855,2.441,1.587,1.770
0.511,-0.166,0.876,2.747,1.770,1.343
0.319,-0.123,0.865,2.625,1.404,0.916
0.522,-0.165,0.849,2.014,1.221,0.916
0.342,-0.133,0.879,1.221,0.549,0.793
0.494,-0.149,0.836,0.854,-0.122,1.160
0.381,-0.138,0.904,0.244,-0.183,1.099
0.429,-0.124,0.843,0.305,0.061,1.099
0.432,-0.148,0.910,0.854,0.244,0.854
0.359,-0.113,0.852,1.282,0.427,1.160
0.482,-0.156,0.895,1.831,1.160,0.977
0.316,-0.112,0.862,2.136,1.099,1.099
0.510,-0.157,0.866,2.319,1.343,1.404
0.344,-0.127,0.846,1.526,1.404,2.014
0.506,-0.169,0.877,1.160,1.404,1.770
0.318,-0.119,0.871,0.854,1.526,1.648
0.518,-0.159,0.865,1.343,1.892,1.892
0.330,-0.126,0.896,1.709,1.587,1.953
0.492,-0.151,0.848,2.258,1.282,2.502
0.371,-0.145,0.902,2.502,1.099,2.441
0.435,-0.139,0.834,2.136,1.282,2.258
0.432,-0.159,0.898,1.587,1.343,1.709
0.371,-0.125,0.837,0.854,1.221,1.343
0.490,-0.162,0.886,0.610,1.038,1.343
0.327,-0.110,0.856,0.427,0.549,1.282
0.512,-0.154,0.870,0.916,0.549,1.465
0.311,-0.112,0.879,1.160,0.610,1.404
0.500,-0.150,0.852,1.709,1.099,1.770
0.333,-0.129,0.897,2.014,1.099,1.648
0.458,-0.141,0.837,2.014,1.526,1.648
0.393,-0.150,0.900,2.075,1.892,1.282
0.402,-0.132,0.833,1.709,1.587,1.465
0.458,-0.166,0.893,1.587,1.709,1.526
0.348,-0.124,0.846,1.221,1.526,1.709
0.508,-0.168,0.883,0.977,1.526,2.014
0.320,-0.120,0.867,0.977,1.038,2.380
0.516,-0.164,0.862,1.099,0.610,2.502
0.321,-0.126,0.889,0.916,0.793,2.014
0.489,-0.151,0.846,1.038,0.977,1.953
0.364,-0.139,0.900,1.404,0.977,1.526
0.438,-0.136,0.836,1.404,1.099,1.465
0.428,-0.153,0.900,1.465,1.221,1.160
0.379,-0.120,0.837,1.343,1.038,1.282
0.487,-0.159,0.888,1.587,0.854,1.282
0.331,-0.114,0.856,1.404,0.488,1.526
0.514,-0.161,0.872,1.587,0.488,1.648
0.312,-0.118,0.877,1.526,0.610,1.587
0.506,-0.157,0.853,1.526,0.854,1.465
0.333,-0.130,0.895,1.404,0.916,0.977
0.463,-0.140,0.840,1.282,1.404,1.038
0.389,-0.144,0.904,1.221,1.465,0.977
0.405,-0.127,0.838,1.465,1.221,1.587
0.451,-0.157,0.897,1.709,1.343,1.953
0.349,-0.119,0.846,1.831,1.282,2.136
0.500,-0.166,0.880,1.953,1.465,2.563
0.317,-0.120,0.863,1.648,1.160,2.686
0.516,-0.165,0.860,1.587,1.099,2.625
0.321,-0.129,0.883,1.465,0.916,2.136
0.495,-0.154,0.843,1.099,1.038,1.892
0.362,-0.141,0.898,0.977,0.732,1.526
0.442,-0.136,0.835,1.099,0.549,1.526
0.419,-0.151,0.903,1.160,0.916,1.221
0.375,-0.123,0.843,1.404,1.038,1.465
0.473,-0.163,0.895,1.892,1.282,1.160
0.327,-0.121,0.855,1.892,1.099,1.160
0.510,-0.169,0.871,2.136,1.343,1.160
0.312,-0.124,0.872,1.953,1.343,1.099
0.510,-0.162,0.850,1.526,1.404,1.343
0.337,-0.135,0.891,1.221,1.160,1.465
0.470,-0.148,0.839,1.099,0.854,1.770
0.387,-0.146,0.902,0.854,0.977,1.953
0.411,-0.130,0.838,0.916,0.916,2.441
0.445,-0.158,0.901,1.160,0.793,2.625
0.351,-0.119,0.847,1.038,0.977,2.625
0.496,-0.165,0.883,1.221,1.221,2.441
0.315,-0.117,0.865,1.160,1.221,1.953
0.516,-0.163,0.863,1.160,1.709,1.770
0.320,-0.125,0.883,1.282,1.465,1.404
0.499,-0.151,0.844,1.221,1.587,1.221
0.362,-0.131,0.897,1.038,1.343,0.977
0.447,-0.130,0.836,1.343,0.854,1.404
0.413,-0.148,0.902,1.709,0.671,1.831
0.380,-0.122,0.840,1.770,0.793,2.075
0.476,-0.163,0.891,1.770,0.916,1.953
0.335,-0.120,0.854,1.770,0.488,2.197
0.513,-0.165,0.878,1.587,0.854,2.075
0.316,-0.121,0.876,1.465,1.099,1.648
0.508,-0.161,0.857,1.587,1.282,1.709
0.328,-0.131,0.889,1.465,1.465,1.099
0.473,-0.146,0.836,1.343,1.526,0.916
0.378,-0.144,0.899,1.404,1.282,0.671
0.411,-0.129,0.838,1.465,1.221,0.977
0.442,-0.158,0.902,1.892,1.404,1.099
0.353,-0.128,0.848,2.441,1.038,1.892
0.493,-0.174,0.883,2.686,1.160,2.319
0.321,-0.128,0.857,2.319,1.221,2.441
0.519,-0.173,0.859,2.014,1.221,2.747
0.320,-0.130,0.876,1.221,0.793,2.502
0.501,-0.159,0.843,0.549,1.038,2.502
0.353,-0.140,0.898,0.244,0.854,2.014
0.447,-0.141,0.840,0.183,0.854,1.953
0.409,-0.154,0.907,0.488,1.038,1.221
0.384,-0.127,0.844,0.671,1.160,1.160
0.467,-0.161,0.896,0.916,1.404,1.038
0.334,-0.117,0.849,0.854,1.343,1.038
0.506,-0.165,0.874,1.160,1.404,1.282
0.310,-0.117,0.870,1.160,1.343,1.343
0.510,-0.158,0.857,1.099,1.709,1.892
0.330,-0.126,0.894,1.343,1.343,2.197
0.479,-0.143,0.842,1.526,1.343,3.113
0.378,-0.140,0.902,1.648,1.221,3.174
0.422,-0.130,0.836,1.648,1.343,3.357
0.441,-0.156,0.898,1.831,1.282,3.052
0.360,-0.119,0.843,1.770,1.038,2.747
0.491,-0.162,0.886,1.953,1.526,2.136
0.322,-0.115,0.862,1.953,2.014,1.526
0.516,-0.162,0.867,2.197,2.319,1.343
0.322,-0.125,0.880,2.502,1.831,1.099
0.508,-0.158,0.844,2.686,1.648,1.404
0.355,-0.142,0.892,2.441,1.160,1.282
0.461,-0.149,0.833,1.709,0.977,1.526
0.411,-0.156,0.898,1.343,0.916,1.221
0.395,-0.128,0.838,0.854,0.488,1.404
0.466,-0.161,0.897,0.732,0.732,1.221
0.337,-0.117,0.858,0.671,0.732,1.587
0.505,-0.164,0.884,1.343,1.099,1.709
0.311,-0.119,0.875,1.465,0.977,1.831
0.511,-0.163,0.857,1.770,1.587,2.014
0.327,-0.133,0.884,1.648,1.709,1.892
0.483,-0.154,0.834,1.526,1.587,2.197
0.372,-0.147,0.895,1.038,1.404,2.136
0.423,-0.138,0.831,0.732,1.282,2.380
0.434,-0.159,0.899,0.793,1.282,2.380
0.327,-0.115,0.861,1.343,0.671,2.380
0.519,-0.162,0.868,1.770,0.793,2.197
0.317,-0.120,0.882,1.831,0.549,1.587
0.503,-0.157,0.851,2.136,0.854,1.221
0.346,-0.137,0.898,2.258,1.099,0.366
0.456,-0.142,0.837,2.075,1.099,0.061
0.400,-0.150,0.900,2.075,1.099,-0.183
0.394,-0.129,0.834,1.709,0.977,0.122
0.459,-0.163,0.891,1.465,0.977,0.610
0.336,-0.123,0.845,1.160,0.977,1.038
0.501,-0.169,0.876,0.977,1.404,1.648
0.310,-0.120,0.870,0.854,1.282,2.014
0.509,-0.163,0.862,0.977,1.587,2.686
0.323,-0.130,0.893,1.160,1.831,2.869
0.486,-0.151,0.845,1.587,2.075,3.174
0.376,-0.145,0.905,1.892,1.770,3.174
0.439,-0.140,0.833,2.197,1.648,3.601
0.443,-0.161,0.895,2.319,1.160,3.357
0.376,-0.133,0.834,1.892,0.854,3.113
0.490,-0.173,0.883,1.099,0.916,2.441
0.325,-0.125,0.857,0.366,0.793,1.587
0.512,-0.164,0.872,0.305,0.977,0.977
0.310,-0.115,0.883,0.427,1.038,0.549
0.500,-0.149,0.856,0.916,1.404,0.610
0.337,-0.130,0.899,1.770,1.526,0.793
0.453,-0.143,0.837,2.380,1.709,1.343
0.397,-0.154,0.896,2.686,1.892,1.404
0.399,-0.135,0.830,2.441,1.404,2.075
0.461,-0.167,0.887,1.953,1.221,2.441
0.347,-0.126,0.843,1.221,1.221,2.686
0.508,-0.170,0.875,0.854,1.038,2.930
0.316,-0.119,0.869,0.366,0.427,2.686
0.517,-0.161,0.862,0.366,0.793,2.563
0.325,-0.125,0.892,0.610,0.854,2.075
0.489,-0.148,0.850,0.916,1.221,1.892
0.370,-0.140,0.907,1.343,1.465,1.343
0.436,-0.137,0.842,1.831,1.770,1.343
0.436,-0.159,0.902,2.258,1.770,1.160
0.381,-0.128,0.836,2.441,1.465,1.282
0.493,-0.170,0.880,2.075,1.221,1.465
0.333,-0.126,0.848,1.343,0.854,1.709
0.516,-0.171,0.864,0.671,0.610,1.770
0.313,-0.123,0.874,-0.183,0.427,1.709
0.501,-0.153,0.853,-0.427,0.732,1.892
0.339,-0.125,0.898,-0.122,0.793,1.770
0.462,-0.132,0.846,0.549,0.793,2.319
0.390,-0.140,0.908,1.709,0.671,2.563
0.400,-0.127,0.838,2.441,0.977,2.747
0.453,-0.163,0.894,2.747,1.282,2.563
0.345,-0.123,0.843,2.625,1.221,2.380
0.502,-0.170,0.875,2.380,1.709,1.892
0.318,-0.122,0.861,1.831,1.709,1.465
0.520,-0.163,0.856,1.587,1.526,1.282
0.326,-0.125,0.885,1.404,0.916,0.977
0.495,-0.150,0.843,1.648,0.977,1.221
0.367,-0.142,0.902,1.831,0.732,1.038
0.437,-0.141,0.839,2.014,0.549,1.343
0.423,-0.162,0.904,2.014,0.732,1.282
0.374,-0.135,0.841,1.892,0.916,1.282
0.483,-0.176,0.889,1.953,1.221,1.343
0.332,-0.130,0.855,1.465,1.099,1.587
0.515,-0.174,0.870,1.221,1.221,2.136
0.313,-0.129,0.875,0.916,1.221,2.380
0.506,-0.167,0.850,0.732,1.343,2.686
0.338,-0.139,0.890,0.427,0.977,2.441
0.467,-0.148,0.836,0.427,0.793,2.686
0.389,-0.150,0.901,0.366,0.793,2.380
0.404,-0.130,0.837,0.427,1.038,2.319
0.449,-0.157,0.899,0.610,1.160,2.075
0.345,-0.114,0.851,1.160,1.465,1.892
0.496,-0.159,0.884,1.709,1.709,1.892
0.318,-0.115,0.866,2.014,1.587,1.892
0.516,-0.163,0.859,2.441,1.526,1.770
0.323,-0.129,0.881,2.319,0.916,1.648
0.496,-0.157,0.836,1.892,0.916,1.709
0.360,-0.142,0.891,1.404,0.732,1.221
0.436,-0.137,0.830,0.916,0.671,1.343
0.416,-0.152,0.900,0.671,0.977,1.343
0.374,-0.121,0.842,0.671,0.916,1.587
0.474,-0.160,0.898,1.099,1.160,1.831
0.326,-0.117,0.864,1.709,1.587,2.258
0.511,-0.168,0.879,2.319,2.502,2.563
0.316,-0.127,0.875,2.686,2.563,2.563
0.520,-0.167,0.847,2.563,2.686,2.686
0.351,-0.140,0.884,2.075,1.953,2.380
0.483,-0.150,0.832,1.526,1.221,2.686
0.398,-0.150,0.899,1.160,0.793,2.380
0.416,-0.133,0.838,0.916,0.549,2.197
0.452,-0.161,0.902,1.160,0.732,1.831
0.351,-0.122,0.849,1.221,0.610,1.465
0.496,-0.167,0.883,1.404,0.977,0.977
0.314,-0.121,0.862,1.587,0.977,0.610
0.514,-0.164,0.858,1.465,1.099,0.488
0.316,-0.123,0.881,1.526,0.854,0.549
0.492,-0.150,0.843,1.526,0.977,1.099
0.357,-0.136,0.897,2.014,1.099,1.465
0.443,-0.139,0.836,2.319,1.099,2.075
0.418,-0.157,0.901,2.441,1.099,2.258
0.383,-0.131,0.837,2.075,0.977,2.380
0.478,-0.172,0.889,2.258,1.404,2.075
0.336,-0.128,0.851,1.648,1.038,1.892
0.511,-0.170,0.873,1.343,0.977,1.892
0.313,-0.122,0.875,1.160,1.038,1.587
0.506,-0.162,0.856,1.221,1.526,1.831
0.327,-0.136,0.896,1.587,1.587,1.831
0.470,-0.154,0.839,1.587,2.136,2.075
0.388,-0.154,0.900,1.526,2.075,1.892
0.420,-0.139,0.834,1.526,1.404,2.441
0.455,-0.167,0.894,1.221,1.404,2.563
0.363,-0.127,0.842,1.282,1.099,2.686
0.501,-0.168,0.882,1.343,0.854,2.747
0.325,-0.121,0.863,1.404,0.793,2.625
0.521,-0.165,0.866,1.526,0.916,2.502
0.322,-0.127,0.884,1.526,0.610,2.197
0.500,-0.157,0.847,1.709,0.793,2.014
0.357,-0.141,0.897,1.465,1.038,1.282
0.449,-0.144,0.835,1.465,0.916,1.099
0.412,-0.158,0.900,1.282,1.099,0.732
0.388,-0.132,0.836,0.977,1.282,0.549
0.475,-0.167,0.890,1.221,1.221,0.549
0.307,-0.120,0.871,1.526,0.671,1.953
0.507,-0.165,0.855,1.526,0.916,2.625
0.326,-0.134,0.891,1.709,1.038,2.625
0.475,-0.152,0.839,1.831,1.465,2.808
0.382,-0.154,0.898,1.648,1.526,2.625
0.426,-0.141,0.833,1.526,1.221,2.502
0.447,-0.166,0.895,1.404,0.977,2.197
0.364,-0.128,0.842,1.099,0.854,1.892
0.500,-0.172,0.885,0.977,1.160,1.404
0.322,-0.124,0.864,0.916,0.854,1.038
0.517,-0.169,0.867,0.977,0.916,1.038
0.316,-0.128,0.883,1.282,1.038,0.732
0.499,-0.160,0.847,1.526,1.160,0.671
0.348,-0.141,0.897,1.587,1.160,0.549
0.450,-0.144,0.836,1.404,1.404,0.977
0.407,-0.155,0.900,1.648,1.587,0.916
0.386,-0.129,0.836,1.648,1.343,1.526
0.470,-0.167,0.890,1.648,1.587,1.831
0.340,-0.124,0.846,1.343,1.160,1.953
0.510,-0.170,0.872,1.404,0.916,2.197
0.316,-0.125,0.867,1.160,0.793,1.892
0.515,-0.165,0.853,0.854,1.099,1.831
0.332,-0.133,0.889,0.671,0.732,1.648
0.484,-0.148,0.841,0.671,0.732,1.831
0.380,-0.141,0.903,0.916,0.366,1.587
0.425,-0.132,0.839,1.343,0.427,1.892
0.436,-0.159,0.903,1.831,0.793,1.770
0.361,-0.126,0.845,1.892,1.221,1.648
0.491,-0.170,0.886,2.075,1.526,1.526
0.322,-0.124,0.855,1.831,1.282,1.282
0.517,-0.172,0.861,1.648,1.282,1.282
0.316,-0.132,0.875,1.221,1.160,1.343
0.502,-0.163,0.845,0.793,1.221,1.770
0.349,-0.142,0.895,0.488,1.160,1.831
0.456,-0.147,0.838,0.427,0.916,2.075
0.407,-0.155,0.904,0.732,0.977,2.014
0.396,-0.132,0.840,0.977,0.916,2.197
0.465,-0.166,0.895,1.465,0.793,2.075
0.341,-0.125,0.849,1.709,0.977,2.014
0.508,-0.172,0.874,1.892,1.099,1.709
0.316,-0.125,0.866,1.709,0.732,1.404
0.515,-0.167,0.855,1.709,0.732,1.221
0.327,-0.134,0.888,1.587,0.732,1.099
0.482,-0.154,0.841,1.526,0.854,1.465
0.373,-0.144,0.901,1.160,0.854,1.282
0.424,-0.134,0.837,1.099,0.977,1.648
0.428,-0.156,0.902,1.221,1.038,1.831
0.357,-0.122,0.844,1.221,1.160,2.136
0.481,-0.166,0.888,1.587,1.831,2.197
0.319,-0.123,0.859,1.770,1.709,2.136
0.510,-0.171,0.866,1.892,1.770,2.686
0.314,-0.131,0.876,1.953,1.892,2.747
0.509,-0.166,0.843,1.953,2.136,2.991
0.354,-0.141,0.889,1.526,1.465,3.052
0.467,-0.145,0.833,1.404,1.038,3.418
0.412,-0.154,0.900,1.343,0.977,3.235
0.407,-0.134,0.837,1.343,0.854,3.052
0.470,-0.171,0.897,1.709,0.610,2.441
0.346,-0.130,0.852,1.404,0.793,1.648
0.511,-0.176,0.882,1.404,1.282,0.610
0.318,-0.127,0.871,1.282,0.977,0.122
0.515,-0.170,0.860,1.282,1.282,0.000
0.326,-0.133,0.888,1.099,1.160,-0.061
0.484,-0.155,0.841,1.160,1.099,0.610
0.369,-0.147,0.898,1.221,0.793,1.343
0.429,-0.138,0.831,1.282,0.671,2.197
0.428,-0.158,0.896,1.282,0.427,2.563
0.365,-0.124,0.837,0.854,0.427,3.052
0.484,-0.165,0.887,0.671,0.916,3.052
0.320,-0.119,0.859,0.671,0.732,2.930
0.511,-0.166,0.870,0.854,1.038,2.747
0.315,-0.122,0.878,0.977,1.160,2.075
0.507,-0.157,0.849,1.160,1.282,2.014
0.342,-0.136,0.893,1.648,1.038,1.648
0.460,-0.144,0.834,1.648,1.221,1.587
0.398,-0.150,0.901,1.831,1.526,1.038
0.399,-0.130,0.837,1.953,1.343,1.160
0.459,-0.165,0.896,2.136,1.343,1.221
0.344,-0.127,0.848,2.258,1.099,1.465
0.504,-0.174,0.877,2.075,1.282,1.648
0.316,-0.128,0.864,1.770,0.916,1.831
0.516,-0.169,0.856,1.465,1.099,2.197
0.325,-0.136,0.885,1.099,1.221,2.075
0.489,-0.160,0.843,0.977,1.343,2.319
0.370,-0.150,0.903,0.916,1.404,2.136
0.438,-0.143,0.839,0.977,1.465,2.258
0.436,-0.162,0.902,1.404,1.343,2.258
0.380,-0.131,0.841,1.526,0.916,2.258
0.493,-0.172,0.887,1.648,1.038,2.136
0.333,-0.127,0.856,1.526,0.732,1.892
0.521,-0.175,0.868,1.587,0.793,1.648
0.321,-0.132,0.877,1.282,0.549,1.221
0.510,-0.165,0.850,1.221,0.366,1.038
0.343,-0.138,0.896,0.977,0.122,0.854
0.464,-0.146,0.838,0.977,0.305,0.916
0.396,-0.153,0.902,1.160,0.183,0.732
0.401,-0.134,0.835,1.038,-0.122,1.038
0.454,-0.167,0.892,1.221,0.061,1.160
0.341,-0.126,0.845,0.916,0.061,1.343
0.492,-0.170,0.880,0.549,0.549,1.404
0.305,-0.121,0.867,0.244,0.854,1.343
0.503,-0.161,0.864,0.549,1.526,1.587
0.316,-0.127,0.890,1.221,1.770,2.014
0.486,-0.154,0.844,1.648,1.709,2.625
0.365,-0.147,0.895,1.953,1.587,3.052
0.438,-0.146,0.826,1.892,1.221,3.479
0.427,-0.166,0.891,1.404,0.854,3.296
0.374,-0.132,0.835,0.610,0.793,2.869
0.482,-0.166,0.889,0.244,0.977,2.075
0.328,-0.116,0.860,0.061,0.854,1.526
0.515,-0.160,0.877,0.671,1.038,1.160
0.313,-0.116,0.883,1.221,0.916,1.160
0.505,-0.157,0.855,2.014,1.343,1.282
0.337,-0.136,0.894,2.380,1.526,0.977
0.463,-0.151,0.836,2.441,1.770,1.160
0.392,-0.155,0.898,2.136,2.014,1.282
0.408,-0.138,0.831,1.709,1.892,1.709
0.458,-0.169,0.893,1.404,1.770,2.075
0.354,-0.130,0.845,0.793,1.343,2.686
0.508,-0.174,0.881,0.671,1.160,3.052
0.326,-0.128,0.889,0.977,0.427,2.625
0.492,-0.153,0.848,1.221,0.732,2.136
0.363,-0.142,0.903,1.648,0.977,1.343
0.437,-0.142,0.838,2.014,0.854,1.099
0.422,-0.162,0.900,2.319,1.221,0.732
0.375,-0.136,0.836,2.258,1.099,0.732
0.477,-0.176,0.882,2.197,1.282,0.610
0.325,-0.131,0.846,1.282,0.916,0.916
0.508,-0.176,0.866,0.793,1.160,1.160
0.308,-0.128,0.874,0.305,0.854,1.343
0.500,-0.162,0.855,0.122,0.916,1.953
0.332,-0.133,0.898,0.000,1.160,2.075
0.467,-0.146,0.843,0.610,1.282,2.686
0.390,-0.149,0.904,1.343,1.221,2.869
0.410,-0.135,0.838,1.587,1.343,3.052
0.457,-0.169,0.895,1.770,1.587,2.747
0.355,-0.129,0.840,1.648,1.343,2.380
0.506,-0.173,0.874,1.221,1.404,2.136
0.326,-0.124,0.859,0.610,0.916,1.526
0.520,-0.161,0.862,0.427,0.732,1.343
0.326,-0.121,0.888,0.305,0.549,1.038
0.496,-0.148,0.850,1.099,0.671,1.160
0.358,-0.136,0.904,1.831,0.305,1.099
0.436,-0.137,0.839,2.197,0.610,1.526
0.414,-0.158,0.903,2.563,1.038,1.282
0.369,-0.128,0.840,2.197,1.099,1.404
0.472,-0.165,0.890,2.075,1.648,1.343
0.325,-0.121,0.853,2.197,1.770,1.709
0.505,-0.168,0.869,2.197,1.953,2.197
0.312,-0.127,0.870,2.319,1.892,2.441
0.511,-0.170,0.847,2.136,1.770,3.113
0.337,-0.145,0.888,1.892,1.404,3.357
0.475,-0.159,0.834,1.343,1.648,3.357
0.397,-0.158,0.899,1.099,1.648,2.869
0.423,-0.140,0.836,1.099,0.793,2.930
0.457,-0.168,0.895,1.282,0.549,2.563
0.358,-0.124,0.850,1.282,0.549,2.014
0.505,-0.171,0.888,1.343,0.793,1.465
0.322,-0.124,0.867,1.343,0.610,1.038
0.518,-0.165,0.869,1.587,0.671,0.732
0.320,-0.128,0.886,1.770,0.793,0.427
0.490,-0.158,0.844,1.770,1.099,0.671
0.355,-0.146,0.894,1.709,1.038,0.610
0.439,-0.145,0.831,1.404,0.671,1.221
0.411,-0.158,0.895,1.099,0.488,1.526
0.374,-0.129,0.833,0.854,0.793,2.197
0.466,-0.167,0.889,0.916,1.160,2.563
0.325,-0.120,0.854,0.854,1.404,2.686
0.507,-0.164,0.876,1.282,1.343,2.930
0.316,-0.118,0.878,1.526,1.282,2.747
0.513,-0.159,0.855,2.258,1.526,2.686
0.338,-0.136,0.891,2.747,1.465,2.014
0.480,-0.156,0.835,3.113,1.526,1.465
0.390,-0.161,0.897,2.747,1.221,0.610
0.417,-0.147,0.830,2.014,1.160,0.488
0.449,-0.173,0.893,1.282,1.160,0.305
0.357,-0.132,0.843,0.916,0.671,0.488
0.495,-0.170,0.885,0.488,0.549,0.977
0.316,-0.120,0.865,0.305,0.366,1.404
0.509,-0.165,0.868,0.916,0.732,1.953
0.311,-0.129,0.887,1.221,1.038,2.136
0.492,-0.160,0.846,1.648,1.587,2.625
0.355,-0.147,0.898,1.953,1.648,2.380
0.451,-0.148,0.833,1.587,1.343,2.563
0.419,-0.162,0.897,1.648,1.404,2.319
0.388,-0.136,0.833,1.282,1.221,2.441
0.476,-0.173,0.888,1.038,1.099,2.319
0.336,-0.125,0.850,0.671,1.038,1.953
0.510,-0.167,0.875,0.854,1.038,1.709
0.313,-0.119,0.875,0.793,0.916,1.343
0.508,-0.159,0.858,1.282,1.282,1.221
0.330,-0.130,0.895,2.014,1.343,1.099
0.470,-0.149,0.842,2.258,1.404,1.282
0.377,-0.150,0.899,2.502,1.709,1.221
0.416,-0.138,0.829,2.380,1.770,1.343
0.444,-0.165,0.891,2.380,1.587,1.465
0.361,-0.128,0.836,2.014,1.221,1.892
0.497,-0.172,0.879,1.770,1.038,2.136
0.323,-0.125,0.859,1.282,0.916,2.197
0.520,-0.170,0.866,1.038,0.977,2.258
0.322,-0.128,0.886,0.977,0.610,2.197
0.500,-0.159,0.852,1.160,1.038,2.319
0.356,-0.141,0.905,1.282,1.099,1.953
0.453,-0.145,0.843,1.831,1.465,1.892
0.416,-0.158,0.904,2.319,1.648,1.587
0.392,-0.135,0.836,2.563,1.526,1.709
0.474,-0.172,0.888,2.563,1.282,1.465
0.337,-0.129,0.846,2.197,0.977,1.465
0.510,-0.177,0.870,1.831,0.854,1.526
0.313,-0.130,0.868,1.404,0.366,1.404
0.510,-0.169,0.853,1.343,0.427,1.709
0.328,-0.137,0.889,1.282,0.427,1.404
0.473,-0.152,0.839,1.221,0.610,1.404
0.372,-0.150,0.902,1.343,0.610,1.099
0.411,-0.140,0.838,1.648,0.732,1.343
0.431,-0.168,0.901,1.892,1.282,1.221
0.351,-0.132,0.843,1.953,1.709,1.404
0.484,-0.176,0.885,2.075,1.892,1.587
0.313,-0.131,0.860,1.831,2.014,1.709
0.507,-0.179,0.862,1.892,2.502,2.075
0.318,-0.136,0.876,1.709,2.625,2.075
0.501,-0.164,0.842,1.587,2.258,2.502
0.354,-0.144,0.891,1.526,1.648,2.686
0.455,-0.148,0.831,1.343,1.709,2.991
0.413,-0.162,0.898,1.465,1.587,2.686
0.391,-0.138,0.838,1.465,1.343,2.563
0.473,-0.173,0.893,1.526,1.465,1.953
0.343,-0.128,0.852,1.465,1.404,1.831
0.512,-0.175,0.877,1.465,1.282,1.526
0.317,-0.131,0.874,1.160,1.282,1.160
0.515,-0.173,0.858,1.282,1.770,1.282
0.335,-0.141,0.890,1.404,1.404,1.038
0.484,-0.157,0.837,1.465,1.465,1.404
0.382,-0.153,0.896,1.465,1.526,1.404
0.426,-0.143,0.833,1.282,1.404,1.648
0.442,-0.167,0.898,1.221,1.404,1.709
0.363,-0.128,0.841,1.221,1.221,1.953
0.493,-0.171,0.885,1.221,1.465,2.014
0.328,-0.125,0.857,1.038,1.465,2.136
0.519,-0.169,0.866,1.160,1.099,2.563
0.348,-0.139,0.895,0.977,1.038,2.319
0.450,-0.143,0.836,1.038,1.160,2.197
0.407,-0.155,0.902,1.282,1.526,1.648
0.393,-0.130,0.839,1.587,1.221,1.587
0.466,-0.165,0.896,2.380,1.282,1.343
0.340,-0.128,0.849,2.808,1.404,1.343
0.508,-0.180,0.873,3.357,1.465,1.221
0.315,-0.139,0.862,3.113,1.221,1.160
0.515,-0.185,0.847,2.502,1.465,1.160
0.331,-0.153,0.881,1.770,1.160,1.038
0.483,-0.169,0.836,0.732,0.793,1.648
0.375,-0.158,0.902,0.183,0.916,1.831
0.424,-0.143,0.842,-0.183,1.221,2.625
0.434,-0.165,0.908,0.244,1.770,3.113
0.361,-0.131,0.850,0.671,1.953,3.662
0.489,-0.174,0.889,1.343,2.502,3.662
0.326,-0.128,0.854,1.221,2.441,3.418
0.521,-0.175,0.857,1.160,2.380,3.113
0.324,-0.131,0.867,0.549,1.953,2.563
0.514,-0.158,0.836,0.305,1.465,2.319
0.359,-0.132,0.889,0.305,0.671,1.831
0.462,-0.139,0.834,0.671,0.183,1.709
0.404,-0.150,0.902,1.343,0.366,1.282
0.391,-0.130,0.838,1.831,0.427,0.977
0.461,-0.166,0.893,2.197,0.671,0.427
0.342,-0.128,0.848,2.075,0.549,0.061
0.508,-0.174,0.876,1.831,0.671,0.244
0.318,-0.125,0.869,1.526,0.671,0.671
0.517,-0.168,0.859,1.526,1.099,1.221
0.330,-0.136,0.892,1.770,1.282,1.648
0.484,-0.160,0.844,2.136,1.587,2.502
0.377,-0.157,0.900,2.258,1.709,2.441
0.434,-0.150,0.831,2.014,1.526,2.625
0.440,-0.171,0.893,1.465,1.221,2.563
0.372,-0.136,0.837,0.854,1.099,2.625
0.492,-0.174,0.883,0.610,1.221,2.258
0.325,-0.122,0.856,0.488,0.977,2.075
0.514,-0.167,0.868,0.977,1.160,1.953
0.317,-0.122,0.880,1.465,1.099,1.587
0.503,-0.158,0.849,2.136,1.160,1.648
0.347,-0.142,0.895,2.686,1.099,1.465
0.462,-0.155,0.833,2.930,1.160,1.343
0.406,-0.167,0.895,2.869,0.854,0.916
0.402,-0.146,0.828,2.258,0.732,0.793
0.464,-0.178,0.889,1.526,0.916,0.732
0.344,-0.135,0.847,0.671,0.732,0.854
0.503,-0.178,0.882,0.488,0.732,1.404
0.311,-0.129,0.873,0.671,0.671,1.770
0.476,-0.167,0.870,1.038,1.160,2.014
0.403,-0.155,0.872,1.587,1.526,2.075
0.412,-0.155,0.866,1.892,1.770,2.380
0.424,-0.157,0.862,1.892,1.770,2.197
0.409,-0.149,0.855,1.648,1.465,2.136
0.446,-0.158,0.865,1.038,1.404,2.014
0.376,-0.137,0.854,0.732,1.099,1.831
0.480,-0.163,0.870,0.854,0.793,2.014
0.338,-0.129,0.869,0.854,0.793,1.831
0.494,-0.164,0.859,1.282,1.160,1.770
0.335,-0.137,0.887,1.343,1.526,1.648
0.474,-0.157,0.847,1.465,1.892,1.648
0.374,-0.150,0.898,1.770,1.892,1.465
0.431,-0.145,0.836,1.770,2.075,1.648
0.438,-0.166,0.894,1.892,2.014,1.770
0.380,-0.136,0.838,1.709,1.526,2.136
0.496,-0.177,0.882,1.709,1.526,2.380
0.339,-0.133,0.851,1.526,0.977,2.747
0.524,-0.177,0.862,1.221,0.549,2.991
0.327,-0.136,0.874,0.793,0.183,2.686
0.511,-0.169,0.849,0.549,0.183,2.197
0.350,-0.145,0.896,0.671,0.183,1.343
0.464,-0.152,0.842,0.854,0.427,1.099
0.400,-0.158,0.906,1.282,0.671,0.549
0.401,-0.139,0.840,1.648,1.160,0.549
0.463,-0.171,0.895,1.892,1.282,0.610
0.346,-0.131,0.846,1.770,0.854,1.160
0.502,-0.176,0.876,1.648,1.038,1.587
0.317,-0.131,0.863,1.404,1.038,1.892
0.512,-0.173,0.854,1.282,0.916,2.502
0.323,-0.136,0.881,0.916,0.488,2.808
0.484,-0.157,0.837,0.732,0.854,3.235
0.366,-0.148,0.897,0.793,1.038,2.747
0.429,-0.141,0.835,0.732,1.038,2.625
0.428,-0.164,0.900,1.160,1.404,2.075
0.375,-0.134,0.840,1.587,1.465,1.770
0.490,-0.176,0.885,1.953,1.343,1.465
0.332,-0.130,0.852,2.014,0.977,1.343
0.519,-0.178,0.863,1.770,1.099,1.343
0.316,-0.136,0.873,1.587,0.854,1.221
0.501,-0.169,0.847,1.099,0.977,1.099
0.338,-0.144,0.893,0.854,0.916,0.610
0.458,-0.151,0.839,0.671,1.038,0.977
0.395,-0.155,0.901,0.977,1.404,1.282
0.402,-0.135,0.836,1.038,1.343,1.892
0.459,-0.169,0.894,1.343,1.099,2.380
0.347,-0.130,0.846,1.343,1.282,2.869
0.506,-0.177,0.879,1.404,1.526,3.235
0.321,-0.131,0.865,1.221,1.404,3.357
0.518,-0.174,0.858,1.099,1.648,3.540
0.328,-0.138,0.883,0.854,1.404,3.174
0.493,-0.161,0.841,0.977,1.404,2.808
0.369,-0.150,0.898,0.916,1.282,2.197
0.435,-0.141,0.834,0.916,1.282,1.892
0.428,-0.161,0.900,1.343,1.526,1.526
0.376,-0.131,0.840,1.770,1.404,1.343
0.486,-0.172,0.887,2.014,1.343,1.221
0.332,-0.128,0.852,2.136,1.343,1.282
0.517,-0.176,0.864,2.258,1.465,1.404
0.322,-0.133,0.872,1.770,1.221,1.526
0.515,-0.167,0.846,1.343,1.282,1.770
0.348,-0.142,0.892,1.099,0.916,1.953
0.472,-0.152,0.836,0.732,0.793,2.319
0.400,-0.156,0.902,0.732,0.854,2.258
0.409,-0.135,0.839,0.793,0.854,2.563
0.461,-0.165,0.898,1.160,0.977,2.380
0.354,-0.125,0.847,1.404,0.916,2.380
0.509,-0.170,0.877,1.770,0.854,2.319
0.322,-0.125,0.861,1.953,0.549,2.319
0.518,-0.172,0.855,2.075,0.793,2.197
0.324,-0.137,0.882,1.892,0.732,1.709
0.490,-0.162,0.840,1.526,0.793,1.404
0.322,-0.136,0.853,1.587,0.549,1.282
0.505,-0.182,0.869,1.404,1.099,1.404
0.307,-0.136,0.874,1.038,0.977,1.526
0.499,-0.171,0.851,0.793,1.160,1.831
0.333,-0.144,0.891,0.671,1.404,2.014
0.463,-0.154,0.836,0.610,1.526,2.747
0.388,-0.155,0.899,0.793,1.465,3.052
0.407,-0.136,0.837,1.038,1.465,3.418
0.457,-0.168,0.897,1.526,1.892,3.601
0.358,-0.130,0.847,1.587,1.587,3.540
0.511,-0.176,0.879,1.831,1.709,3.113
0.332,-0.131,0.860,1.709,1.465,2.319
0.531,-0.175,0.857,1.465,1.343,1.770
0.335,-0.137,0.881,1.221,0.732,0.977
0.501,-0.163,0.842,1.038,0.732,0.671
0.368,-0.148,0.897,0.977,0.488,0.000
0.442,-0.143,0.838,1.038,0.549,0.122
0.422,-0.160,0.903,1.343,0.671,0.305
0.378,-0.132,0.842,1.526,0.549,0.732
0.477,-0.171,0.890,1.770,0.671,1.343
0.330,-0.127,0.854,1.770,0.488,1.953
0.512,-0.176,0.868,1.770,0.793,2.319
0.313,-0.130,0.869,1.465,0.610,2.319
0.504,-0.165,0.848,1.221,0.977,2.563
0.334,-0.137,0.888,1.038,0.916,2.380
0.469,-0.149,0.836,1.160,0.916,2.441
0.387,-0.151,0.901,1.404,0.854,2.136
0.409,-0.137,0.837,1.526,0.977,2.075
0.448,-0.168,0.897,1.709,1.160,1.831
0.352,-0.132,0.844,1.831,1.221,1.587
0.501,-0.178,0.879,2.075,1.526,1.404
0.321,-0.133,0.860,1.831,0.977,1.404
0.519,-0.179,0.859,1.648,0.977,1.709
0.322,-0.141,0.882,1.343,0.854,1.648
0.493,-0.171,0.844,1.099,1.038,1.831
0.357,-0.156,0.897,1.160,1.160,1.648
0.440,-0.154,0.835,0.977,1.160,1.953
0.414,-0.166,0.898,1.099,1.465,2.014
0.379,-0.133,0.837,0.854,1.526,2.319
0.474,-0.170,0.890,1.099,1.648,2.686
0.332,-0.125,0.852,1.343,1.526,3.174
0.516,-0.174,0.870,1.709,1.404,3.235
0.321,-0.132,0.872,1.770,0.977,3.052
0.516,-0.172,0.851,1.770,1.160,2.991
0.344,-0.143,0.889,1.526,1.038,2.258
0.483,-0.158,0.836,1.282,0.793,1.892
0.393,-0.157,0.899,1.038,0.549,1.038
0.420,-0.142,0.836,0.854,0.610,0.488
0.449,-0.168,0.899,1.038,0.732,0.061
0.354,-0.131,0.846,1.282,0.549,0.000
0.502,-0.177,0.881,1.465,0.854,0.122
0.321,-0.130,0.862,1.648,0.244,0.854
0.515,-0.175,0.863,1.404,0.366,1.587
0.318,-0.139,0.883,1.038,0.671,1.831
0.492,-0.166,0.846,0.977,0.671,2.258
0.351,-0.147,0.896,0.732,0.854,2.136
0.441,-0.147,0.835,0.732,1.343,2.197
0.412,-0.161,0.899,0.916,1.587,1.831
0.383,-0.134,0.835,1.099,1.526,2.136
0.475,-0.172,0.886,1.343,1.343,2.136
0.330,-0.125,0.850,1.282,0.977,2.258
0.508,-0.171,0.872,1.343,1.465,1.953
0.313,-0.126,0.870,1.343,1.526,1.892
0.509,-0.165,0.852,1.648,1.282,2.014
0.331,-0.135,0.888,1.770,1.099,1.709
0.475,-0.152,0.838,1.648,1.099,1.770
0.382,-0.152,0.901,1.709,0.977,1.648
0.416,-0.141,0.836,1.587,1.038,2.014
0.442,-0.171,0.898,1.587,1.404,1.831
0.359,-0.136,0.842,1.526,1.465,1.892
0.501,-0.181,0.881,1.465,1.587,1.953
0.326,-0.132,0.861,1.282,1.099,2.258
0.519,-0.177,0.865,1.343,1.343,2.563
0.321,-0.140,0.884,1.343,1.526,2.563
0.498,-0.171,0.847,1.526,1.831,2.991
0.356,-0.154,0.896,1.465,1.770,2.808
0.464,-0.156,0.831,1.160,1.709,2.991
0.427,-0.163,0.896,0.916,0.610,3.174
0.401,-0.133,0.835,0.793,-0.305,3.235
0.479,-0.169,0.893,0.671,0.000,2.747
0.339,-0.126,0.856,0.793,0.000,2.075
0.506,-0.172,0.879,1.404,0.305,1.526
0.311,-0.125,0.873,1.587,0.671,0.549
0.511,-0.166,0.854,1.587,1.038,0.183
0.328,-0.134,0.886,1.709,0.977,-0.122
0.474,-0.151,0.835,1.587,1.038,0.366
0.374,-0.149,0.895,1.770,1.343,0.488
0.417,-0.139,0.831,1.648,1.160,1.221
0.435,-0.166,0.893,1.953,1.099,1.770
0.354,-0.133,0.838,1.892,0.977,2.319
0.486,-0.179,0.881,1.770,1.282,2.441
0.317,-0.132,0.858,1.343,1.099,2.258
0.513,-0.178,0.865,1.221,1.587,2.380
0.320,-0.135,0.880,1.160,1.343,2.197
0.505,-0.166,0.845,1.221,1.526,2.441
0.353,-0.148,0.895,1.099,1.404,2.197
0.460,-0.156,0.836,1.221,1.282,2.502
0.415,-0.167,0.900,1.038,0.977,2.441
0.397,-0.140,0.838,0.854,0.610,2.441
0.474,-0.171,0.895,0.854,0.793,1.953
0.346,-0.126,0.854,0.977,0.732,1.770
0.510,-0.172,0.879,1.221,0.549,1.587
0.318,-0.127,0.870,1.709,0.671,1.404
0.514,-0.170,0.855,1.892,0.916,1.343
0.329,-0.141,0.887,1.831,0.610,0.854
0.479,-0.163,0.837,1.404,0.916,0.916
0.372,-0.158,0.896,1.038,1.038,0.671
0.420,-0.145,0.833,0.793,1.221,1.099
0.436,-0.164,0.896,0.793,1.221,1.648
0.359,-0.127,0.844,0.793,0.977,2.197
0.484,-0.170,0.889,0.977,1.343,2.869
0.320,-0.128,0.861,1.221,1.465,3.235
0.511,-0.177,0.866,1.526,1.526,3.601
0.319,-0.137,0.874,1.526,1.709,3.357
0.505,-0.168,0.842,1.282,1.648,3.174
0.352,-0.143,0.892,1.038,1.282,2.502
0.462,-0.146,0.836,1.038,1.343,2.258
0.411,-0.155,0.903,1.648,1.038,1.831
0.398,-0.136,0.839,2.197,0.732,1.831
0.468,-0.175,0.894,2.502,1.038,1.465
0.317,-0.132,0.865,1.404,0.916,0.244
0.514,-0.173,0.856,1.099,0.916,0.366
0.325,-0.139,0.888,0.977,0.793,0.427
0.482,-0.161,0.844,0.916,1.099,1.282
0.369,-0.154,0.903,1.099,1.221,1.831
0.426,-0.146,0.836,0.916,1.404,2.747
0.431,-0.168,0.897,0.854,1.465,3.174
0.373,-0.135,0.836,0.793,1.282,3.723
0.493,-0.175,0.885,0.793,0.793,3.784
0.331,-0.126,0.857,0.610,0.671,3.662
0.521,-0.171,0.868,0.854,1.343,2.991
0.320,-0.128,0.879,0.977,0.977,2.136
0.507,-0.162,0.850,1.099,0.977,1.892
0.348,-0.140,0.898,1.404,0.916,1.160
0.462,-0.146,0.840,1.648,1.221,0.793
0.399,-0.153,0.902,1.953,1.282,0.427
0.398,-0.136,0.834,2.258,1.404,0.366
0.460,-0.170,0.891,2.441,1.465,0.305
0.342,-0.130,0.843,2.136,1.038,0.610
0.500,-0.178,0.872,2.014,1.282,0.916
0.314,-0.136,0.863,1.404,1.160,1.099
0.512,-0.172,0.857,1.282,1.099,1.648
0.327,-0.140,0.885,0.977,0.916,2.197
0.487,-0.163,0.839,0.732,0.916,2.808
0.369,-0.154,0.901,0.610,0.732,3.174
0.432,-0.149,0.839,0.549,0.793,3.479
0.431,-0.168,0.901,0.610,1.099,3.052
0.374,-0.133,0.840,0.671,1.038,2.869
0.491,-0.169,0.887,0.916,1.160,2.441
0.330,-0.121,0.859,1.160,0.854,2.014
0.517,-0.171,0.872,1.831,1.282,1.892
0.317,-0.131,0.876,2.197,1.099,1.404
0.508,-0.169,0.846,2.563,1.404,1.038
0.344,-0.146,0.889,2.258,1.160,0.488
0.465,-0.155,0.832,1.770,0.854,0.671
0.395,-0.161,0.898,1.221,0.854,0.671
0.398,-0.142,0.836,0.916,0.854,1.038
0.458,-0.172,0.895,0.916,1.099,1.282
0.348,-0.129,0.849,1.038,0.916,1.953
0.506,-0.173,0.880,1.221,0.854,2.319
0.318,-0.128,0.867,1.221,0.732,2.502
0.516,-0.174,0.859,1.404,0.977,2.441
0.327,-0.139,0.884,1.465,0.732,1.892
0.495,-0.161,0.841,1.221,0.854,1.831
0.372,-0.151,0.897,1.282,0.671,1.343
0.436,-0.146,0.835,0.977,0.427,1.343
0.420,-0.164,0.902,0.793,0.671,0.977
0.365,-0.134,0.845,0.793,0.977,1.099
0.470,-0.173,0.893,1.038,1.465,1.221
0.315,-0.129,0.858,1.099,1.648,1.770
0.499,-0.176,0.869,1.343,2.197,2.502
0.304,-0.135,0.873,1.221,2.380,2.930
0.504,-0.170,0.846,1.099,2.869,3.601
0.342,-0.142,0.888,1.282,2.625,3.845
0.471,-0.152,0.832,1.282,2.380,4.456
0.405,-0.158,0.895,1.404,2.136,4.211
0.420,-0.140,0.833,1.587,1.465,3.845
0.470,-0.171,0.894,1.526,0.977,3.174
0.363,-0.131,0.847,1.343,0.610,2.258
0.513,-0.175,0.882,1.160,0.793,1.221
0.329,-0.127,0.868,1.038,0.549,0.427
0.524,-0.172,0.864,1.160,0.549,0.183
0.328,-0.133,0.888,1.160,0.427,-0.305
0.493,-0.158,0.846,1.221,0.488,0.183
0.360,-0.145,0.900,0.916,0.366,0.488
0.434,-0.141,0.838,0.793,0.793,1.038
0.417,-0.157,0.903,1.282,1.282,1.282
0.372,-0.126,0.841,1.587,1.221,1.953
0.477,-0.167,0.888,2.197,1.404,2.441
0.329,-0.124,0.849,2.258,1.343,2.747
0.509,-0.175,0.865,2.075,1.282,2.991
0.313,-0.134,0.868,1.770,1.221,2.563
0.506,-0.171,0.844,1.465,1.343,2.319
0.341,-0.145,0.885,1.099,1.038,1.831
0.472,-0.156,0.834,0.916,0.671,1.892
0.391,-0.158,0.899,0.854,0.549,1.526
0.408,-0.140,0.839,0.671,0.732,1.343
0.448,-0.168,0.902,0.732,1.038,0.977
0.347,-0.130,0.854,0.916,1.099,0.916
0.495,-0.174,0.888,1.648,1.648,0.916
0.316,-0.127,0.868,1.831,1.953,1.099
0.514,-0.174,0.860,2.014,2.075,1.587
0.325,-0.139,0.878,1.831,1.892,1.953
0.501,-0.170,0.837,1.587,1.648,2.747
0.367,-0.156,0.890,1.160,1.038,3.174
0.449,-0.153,0.829,0.549,0.916,3.540
0.426,-0.165,0.899,-0.122,0.793,3.235
0.385,-0.132,0.842,-0.305,0.427,3.296
0.484,-0.165,0.897,0.183,0.488,2.808
0.337,-0.119,0.861,0.671,0.732,2.258
0.515,-0.166,0.879,1.343,1.038,1.587
0.319,-0.123,0.876,1.953,1.038,0.854
0.514,-0.164,0.852,2.441,1.221,0.549
0.338,-0.138,0.886,2.563,0.977,0.061
0.471,-0.153,0.832,2.197,0.671,0.000
0.384,-0.156,0.893,1.648,0.732,-0.122
0.407,-0.142,0.830,1.343,0.427,0.488
0.437,-0.169,0.895,1.038,0.366,1.160
0.341,-0.130,0.846,0.732,0.854,1.648
0.486,-0.171,0.884,0.732,1.648,2.136
0.312,-0.125,0.863,1.099,1.648,2.686
0.512,-0.171,0.863,1.465,1.526,3.479
0.321,-0.134,0.884,1.526,1.587,3.601
0.501,-0.166,0.847,1.892,1.953,3.540
0.362,-0.153,0.895,2.014,1.953,2.991
0.456,-0.154,0.832,1.770,1.953,2.625
0.428,-0.167,0.895,1.465,1.404,1.892
0.391,-0.138,0.839,1.038,0.916,1.526
0.478,-0.174,0.892,0.732,1.099,1.038
0.333,-0.130,0.855,0.732,0.977,0.977
0.511,-0.177,0.876,1.160,1.343,1.038
0.315,-0.130,0.871,1.099,1.221,1.099
0.511,-0.166,0.853,1.038,1.221,1.709
0.334,-0.136,0.887,0.916,1.221,1.953
0.475,-0.152,0.838,0.977,1.099,2.625
0.381,-0.149,0.898,1.099,1.282,2.747
0.416,-0.136,0.837,0.977,1.526,2.625
0.445,-0.161,0.898,1.221,1.892,2.319
0.361,-0.124,0.845,1.465,1.709,2.319
0.504,-0.170,0.880,1.526,1.587,2.197
0.325,-0.137,0.878,1.221,0.488,1.404
0.501,-0.167,0.843,1.221,0.549,1.343
0.356,-0.146,0.895,0.854,0.427,0.854
0.450,-0.145,0.838,0.793,0.610,0.732
0.411,-0.156,0.906,1.038,0.671,0.732
0.383,-0.133,0.844,1.404,0.793,1.221
0.469,-0.173,0.896,1.953,1.221,1.343
0.334,-0.130,0.851,2.075,1.282,1.770
0.508,-0.179,0.869,2.075,1.587,2.136
0.316,-0.134,0.864,1.465,1.404,2.075
0.515,-0.172,0.848,1.099,1.282,2.686
0.332,-0.139,0.886,0.671,0.793,2.808
0.477,-0.153,0.840,0.427,0.793,2.991
0.378,-0.150,0.901,0.549,0.916,2.747
0.419,-0.138,0.838,0.854,1.160,2.686
0.443,-0.162,0.899,1.404,1.221,2.136
0.362,-0.126,0.844,1.587,1.038,1.770
0.497,-0.171,0.885,1.892,1.160,1.526
0.324,-0.128,0.859,1.953,1.160,1.160
0.516,-0.175,0.864,2.014,1.160,0.916
0.322,-0.134,0.879,1.831,0.977,0.488
0.505,-0.163,0.846,1.587,1.282,0.488
0.353,-0.143,0.893,1.587,0.854,0.610
0.452,-0.150,0.834,1.770,0.854,1.343
0.409,-0.165,0.897,1.709,0.977,1.404
0.389,-0.140,0.836,1.221,0.854,1.709
0.468,-0.174,0.891,1.160,1.038,1.953
0.339,-0.130,0.850,0.732,1.099,2.075
0.511,-0.175,0.875,0.610,1.221,2.258
0.317,-0.128,0.871,0.549,0.854,2.319
0.511,-0.167,0.860,0.732,1.038,2.502
0.327,-0.132,0.894,0.977,1.038,2.136
0.475,-0.152,0.845,1.465,1.465,2.136
0.372,-0.150,0.898,2.075,1.709,1.892
0.419,-0.142,0.832,2.319,1.709,2.014
0.435,-0.169,0.891,2.319,1.892,1.526
0.364,-0.137,0.836,2.014,2.014,1.160
0.493,-0.176,0.878,1.709,1.709,0.977
0.324,-0.131,0.853,1.404,1.343,1.099
0.515,-0.175,0.864,1.343,1.282,1.343
0.316,-0.136,0.875,1.282,1.404,1.343
0.503,-0.171,0.850,1.404,1.587,1.770
0.348,-0.147,0.896,1.343,1.343,1.587
0.455,-0.152,0.840,1.343,1.648,1.770
0.409,-0.165,0.901,1.709,1.709,2.014
0.397,-0.141,0.837,1.404,1.587,2.441
0.475,-0.176,0.890,1.221,1.526,2.563
0.348,-0.131,0.848,0.793,1.160,2.625
0.516,-0.176,0.875,0.488,1.282,2.747
0.321,-0.128,0.869,-0.061,0.916,2.563
0.519,-0.167,0.858,0.122,1.038,2.441
0.331,-0.132,0.888,0.427,0.671,1.953
0.483,-0.151,0.840,0.793,0.793,1.648
0.373,-0.146,0.897,1.099,1.038,1.038
0.423,-0.137,0.833,1.282,1.221,0.916
0.434,-0.161,0.894,1.526,1.221,0.671
0.364,-0.129,0.837,1.648,1.038,0.854
0.486,-0.173,0.881,1.709,1.099,1.038
0.320,-0.126,0.855,1.404,1.038,1.526
0.512,-0.173,0.864,0.977,1.221,1.831
0.312,-0.130,0.877,0.732,1.587,2.075
0.499,-0.166,0.850,0.732,1.831,2.686
0.343,-0.144,0.897,0.610,1.953,2.808
0.455,-0.151,0.837,0.671,2.319,3.235
0.403,-0.156,0.898,0.854,2.197,3.296
0.398,-0.134,0.834,0.793,2.075,3.357
0.465,-0.167,0.890,0.977,2.075,3.174
0.342,-0.125,0.848,0.916,1.770,3.113
0.508,-0.172,0.875,1.221,2.075,2.563
0.321,-0.128,0.867,1.282,1.648,2.075
0.520,-0.169,0.856,1.587,1.465,2.014
0.332,-0.136,0.886,1.709,1.282,1.648
0.490,-0.158,0.840,1.648,1.465,1.587
0.377,-0.151,0.899,1.770,1.221,1.404
0.431,-0.145,0.837,1.648,1.404,1.343
0.438,-0.170,0.901,1.526,1.770,1.282
0.371,-0.137,0.845,1.343,1.709,1.587
0.496,-0.178,0.887,1.404,2.075,1.953
0.336,-0.131,0.858,1.038,1.770,2.258
0.526,-0.175,0.868,1.038,1.465,2.869
0.330,-0.131,0.878,0.732,1.526,2.869
0.519,-0.165,0.849,0.732,1.343,3.052
0.361,-0.144,0.893,0.854,0.977,2.747
0.473,-0.152,0.835,0.854,0.854,2.625
0.415,-0.157,0.897,0.854,0.671,1.831
0.410,-0.132,0.832,0.610,0.244,1.526
0.470,-0.162,0.891,0.671,-0.061,1.221
0.344,-0.121,0.846,0.610,-0.061,0.977
0.503,-0.166,0.880,0.732,0.305,0.916
0.310,-0.119,0.871,1.282,0.488,0.793
0.509,-0.163,0.860,1.648,1.038,0.793
0.320,-0.130,0.884,2.197,1.221,0.610
0.486,-0.156,0.835,2.502,1.465,1.160
0.372,-0.150,0.888,2.136,1.038,1.038
0.433,-0.145,0.825,1.953,0.244,1.770
0.430,-0.167,0.892,1.709,0.244,1.831
0.368,-0.137,0.838,1.099,0.427,1.831
0.483,-0.177,0.888,1.099,0.671,1.648
0.324,-0.131,0.859,0.854,0.854,1.465
0.513,-0.173,0.872,0.977,1.465,1.160
0.315,-0.130,0.878,1.038,1.648,0.732
0.506,-0.166,0.850,1.404,1.892,0.854
0.346,-0.141,0.891,1.648,1.953,0.610
0.466,-0.148,0.834,1.770,1.953,1.160
0.399,-0.156,0.897,1.831,1.892,1.465
0.405,-0.141,0.834,1.648,1.953,2.014
0.470,-0.175,0.892,1.465,1.892,2.258
0.358,-0.132,0.842,1.038,1.221,2.686
0.517,-0.173,0.875,0.610,0.854,3.052
0.331,-0.124,0.866,0.183,0.488,2.991
0.526,-0.167,0.863,0.122,0.427,2.869
0.333,-0.130,0.889,0.244,0.305,2.686
0.495,-0.154,0.848,0.732,0.244,2.319
0.371,-0.145,0.902,1.160,0.488,1.465
0.438,-0.141,0.837,1.465,0.671,1.099
0.430,-0.160,0.898,1.953,0.854,0.671
0.372,-0.129,0.837,2.014,0.793,0.427
0.482,-0.168,0.882,2.197,1.038,0.488
0.327,-0.125,0.849,2.319,0.977,0.549
0.510,-0.173,0.863,2.380,0.793,0.916
0.334,-0.148,0.890,1.709,0.732,1.587
0.460,-0.158,0.833,1.099,0.916,1.892
0.394,-0.159,0.896,0.916,0.854,2.075
0.400,-0.140,0.833,0.793,0.549,2.563
0.450,-0.168,0.895,0.732,0.916,2.625
0.341,-0.128,0.848,1.038,1.404,2.625
0.497,-0.173,0.881,1.465,1.648,2.502
0.313,-0.126,0.864,1.343,1.648,2.502
0.516,-0.171,0.857,1.526,1.953,2.441
0.327,-0.134,0.881,1.709,1.953,2.075
0.499,-0.161,0.839,1.526,1.770,2.136
0.372,-0.150,0.894,1.587,1.282,1.953
0.442,-0.142,0.834,1.221,1.160,2.075
0.429,-0.159,0.901,1.282,1.587,1.709
0.377,-0.129,0.843,1.465,1.465,1.831
0.485,-0.171,0.891,1.709,1.709,1.648
0.331,-0.128,0.859,1.770,1.709,1.831
0.516,-0.178,0.871,1.892,1.892,2.075
0.318,-0.137,0.872,1.892,1.831,1.831
0.512,-0.174,0.846,1.709,2.197,1.953
0.350,-0.145,0.887,1.343,2.136,1.892
0.479,-0.154,0.834,1.160,1.648,2.380
0.401,-0.155,0.899,1.038,1.038,2.747
0.414,-0.141,0.835,0.916,1.038,3.113
0.459,-0.173,0.894,1.282,1.160,2.808
0.359,-0.136,0.845,0.916,1.160,2.563
0.512,-0.178,0.878,0.732,0.977,2.197
0.328,-0.124,0.861,0.183,0.488,1.526
0.523,-0.164,0.859,0.244,0.427,1.221
0.323,-0.125,0.885,0.366,0.427,0.793
0.491,-0.151,0.845,0.732,0.732,0.916
0.360,-0.138,0.898,1.343,0.732,0.732
0.432,-0.135,0.837,1.770,0.671,1.160
0.416,-0.155,0.900,2.136,1.343,1.343
0.372,-0.129,0.836,2.258,1.709,1.465
0.474,-0.171,0.884,2.563,1.953,1.709
0.329,-0.127,0.844,2.075,1.953,1.892
0.514,-0.177,0.861,1.648,2.014,2.197
0.318,-0.129,0.865,1.099,1.709,2.502
0.516,-0.165,0.847,1.099,1.526,2.808
0.344,-0.138,0.891,1.221,1.282,2.502
0.477,-0.154,0.841,1.465,1.709,2.625
0.396,-0.159,0.902,1.892,1.526,2.075
0.424,-0.146,0.834,1.953,1.221,1.709
0.464,-0.174,0.894,1.892,0.793,1.343
0.363,-0.133,0.843,1.343,0.549,1.160
0.507,-0.176,0.881,1.160,1.038,0.977
0.324,-0.130,0.865,1.038,0.854,0.977
0.520,-0.175,0.865,1.343,1.160,1.221
0.326,-0.137,0.884,1.404,0.977,1.526
0.499,-0.164,0.844,1.404,1.221,1.953
0.361,-0.151,0.894,1.282,1.282,1.953
0.446,-0.150,0.832,1.160,1.343,2.197
0.421,-0.164,0.896,1.038,1.343,2.319
0.386,-0.133,0.835,0.793,1.343,2.319
0.482,-0.171,0.887,0.977,1.343,2.441
0.337,-0.127,0.849,0.854,0.977,2.563
0.516,-0.173,0.868,1.160,0.793,2.563
0.317,-0.126,0.869,1.038,0.488,2.197
0.515,-0.163,0.850,1.038,0.793,2.136
0.342,-0.134,0.889,1.099,0.366,1.465
0.477,-0.150,0.838,1.465,0.244,1.404
0.388,-0.150,0.899,1.587,0.427,0.916
0.413,-0.136,0.835,1.770,0.488,0.793
0.445,-0.164,0.897,1.831,0.977,0.366
0.351,-0.128,0.844,1.526,1.099,0.427
0.493,-0.174,0.882,1.648,1.648,0.793
0.317,-0.128,0.860,1.465,1.648,1.282
0.515,-0.174,0.859,1.465,1.892,2.380
0.319,-0.135,0.879,1.160,1.648,2.808
0.500,-0.165,0.842,0.977,1.831,3.479
0.363,-0.149,0.893,1.099,1.648,3.540
0.454,-0.151,0.834,1.282,1.343,3.906
0.426,-0.167,0.898,1.221,1.221,3.479
0.395,-0.140,0.838,1.099,1.343,2.991
0.485,-0.175,0.890,0.916,1.343,2.136
0.342,-0.127,0.851,0.671,0.916,1.587
0.513,-0.175,0.872,0.793,0.916,1.038
0.318,-0.123,0.872,1.038,0.793,0.549
0.516,-0.165,0.854,1.221,0.732,0.549
0.332,-0.137,0.888,1.221,0.549,0.671
0.476,-0.154,0.837,1.404,0.916,1.160
0.382,-0.153,0.897,1.465,1.038,1.526
0.418,-0.139,0.832,1.404,0.916,2.075
0.448,-0.165,0.893,1.343,0.916,2.686
0.361,-0.129,0.839,1.099,0.610,3.174
0.500,-0.172,0.880,1.221,0.793,3.174
0.322,-0.125,0.861,1.038,0.793,3.052
0.517,-0.169,0.865,0.977,1.282,2.686
0.318,-0.128,0.881,1.221,1.282,1.953
0.500,-0.157,0.846,1.526,1.709,1.526
0.357,-0.142,0.894,1.831,1.587,1.099
0.455,-0.146,0.830,2.075,1.526,1.221
0.417,-0.162,0.895,2.197,1.038,1.038
0.391,-0.139,0.834,1.953,0.854,1.404
0.475,-0.175,0.888,1.892,1.099,1.282
0.338,-0.131,0.848,1.465,0.793,1.160
0.515,-0.176,0.873,1.343,0.977,1.221
0.320,-0.127,0.868,1.282,0.671,1.343
0.516,-0.167,0.854,1.404,0.916,1.709
0.336,-0.138,0.888,1.404,0.732,1.587
0.480,-0.157,0.840,1.343,0.732,1.770
0.380,-0.156,0.900,1.404,1.099,1.648
0.422,-0.145,0.835,1.465,1.343,1.587
0.446,-0.168,0.896,1.404,1.404,1.587
0.361,-0.130,0.841,1.099,1.343,1.892
0.498,-0.172,0.881,1.038,1.526,2.380
0.324,-0.125,0.859,1.160,0.916,2.747
0.517,-0.171,0.863,1.221,1.099,3.174
0.322,-0.131,0.878,1.038,0.854,2.930
0.501,-0.163,0.845,1.465,0.916,2.808
0.356,-0.142,0.893,1.404,0.916,2.136
0.456,-0.147,0.834,1.404,1.221,1.831
0.414,-0.158,0.899,1.648,1.282,1.221
0.392,-0.134,0.836,2.075,1.282,0.977
0.469,-0.172,0.892,2.197,1.526,0.427
0.337,-0.131,0.851,2.075,1.709,0.183
0.510,-0.180,0.874,2.258,1.892,0.305
0.318,-0.135,0.865,2.014,1.587,0.610
0.515,-0.177,0.852,1.770,1.587,1.099
0.372,-0.124,0.845,0.488,1.038,3.357
0.502,-0.164,0.887,0.854,0.977,3.113
0.332,-0.117,0.859,1.282,0.854,2.563
0.524,-0.164,0.865,1.892,1.038,2.319
0.326,-0.125,0.875,2.075,0.854,1.648
0.511,-0.160,0.841,2.258,0.671,1.221
0.357,-0.143,0.886,2.197,0.244,0.610
0.458,-0.150,0.829,1.892,0.000,0.610
0.406,-0.160,0.894,1.526,0.305,0.000
0.389,-0.138,0.835,1.282,0.549,0.000
0.461,-0.172,0.894,1.038,0.732,0.122
0.331,-0.127,0.854,1.038,0.793,0.671
0.502,-0.172,0.880,1.648,1.282,1.221
0.310,-0.127,0.871,1.892,1.587,2.014
0.511,-0.172,0.856,2.014,1.892,3.113
0.328,-0.142,0.885,2.014,1.892,3.540
0.484,-0.163,0.835,1.770,1.892,3.967
0.384,-0.157,0.892,1.587,1.648,3.723
0.434,-0.148,0.828,1.221,1.038,3.845
0.450,-0.171,0.892,0.671,0.916,3.357
0.377,-0.135,0.838,0.366,0.488,2.869
0.499,-0.177,0.884,0.427,0.305,2.197
0.329,-0.129,0.859,0.244,0.305,1.587
0.520,-0.174,0.870,0.488,0.488,1.038
0.318,-0.130,0.882,0.793,0.427,0.610
0.502,-0.161,0.851,1.404,0.854,0.793
0.348,-0.143,0.897,1.831,1.099,0.671
0.455,-0.152,0.837,2.075,1.343,1.221
0.403,-0.163,0.897,2.197,1.465,1.404
0.397,-0.142,0.832,1.831,1.282,1.953
0.469,-0.175,0.886,1.587,1.160,2.319
0.346,-0.132,0.842,0.793,0.671,2.686
0.510,-0.176,0.871,0.366,0.732,2.686
0.318,-0.126,0.865,0.122,0.488,2.502
0.514,-0.166,0.857,0.183,0.427,2.686
0.328,-0.130,0.889,0.305,0.549,2.197
0.484,-0.151,0.845,1.038,1.038,2.014
0.371,-0.146,0.901,1.709,1.099,1.404
0.428,-0.141,0.835,2.014,1.404,1.343
0.438,-0.165,0.895,2.258,1.770,0.916
0.368,-0.134,0.838,2.014,1.404,1.038
0.490,-0.176,0.881,1.831,1.526,1.038
0.327,-0.130,0.853,1.404,1.587,1.282
0.519,-0.175,0.863,1.160,1.343,1.709
0.323,-0.130,0.875,0.854,0.732,2.197
0.509,-0.164,0.849,0.854,0.854,2.686
0.349,-0.144,0.896,0.854,1.099,2.686
0.463,-0.153,0.840,0.854,1.282,2.869
0.406,-0.156,0.901,1.099,1.221,2.441
0.403,-0.135,0.838,1.221,1.221,2.197
0.470,-0.167,0.894,1.404,1.465,1.892
0.351,-0.125,0.848,1.343,1.343,1.648
0.511,-0.170,0.878,1.648,1.282,1.648
0.321,-0.124,0.868,1.953,1.221,1.587
0.520,-0.170,0.856,2.136,1.160,1.587
0.331,-0.138,0.880,2.258,0.793,1.343
0.489,-0.163,0.834,1.770,0.549,1.404
0.374,-0.155,0.891,1.099,0.427,1.160
0.435,-0.147,0.833,0.610,0.305,1.282
0.433,-0.164,0.901,0.366,0.244,1.343
0.369,-0.131,0.848,0.305,0.427,1.526
0.487,-0.173,0.893,0.916,0.916,1.526
0.325,-0.126,0.859,1.587,1.038,1.648
0.513,-0.173,0.867,1.953,1.343,1.709
0.318,-0.131,0.872,1.892,1.404,1.709
0.508,-0.166,0.844,1.709,1.343,1.953
0.346,-0.140,0.888,1.709,0.854,1.770
0.461,-0.150,0.836,1.648,0.977,1.953
0.395,-0.157,0.898,1.709,1.099,1.770
0.397,-0.138,0.835,1.526,1.160,1.526
0.462,-0.172,0.890,1.526,1.038,1.343
0.349,-0.133,0.843,1.343,0.549,1.404
0.509,-0.178,0.872,1.160,0.793,1.465
0.321,-0.131,0.864,0.671,0.549,1.587
0.518,-0.173,0.861,0.671,0.854,1.465
0.328,-0.136,0.889,0.854,0.854,1.465
0.488,-0.158,0.848,1.404,0.977,1.770
0.369,-0.148,0.902,1.709,1.038,1.587
0.434,-0.146,0.837,1.953,1.343,1.770
0.431,-0.167,0.899,1.953,1.648,1.160
0.373,-0.137,0.839,1.770,1.526,1.221
0.487,-0.176,0.884,1.465,1.526,1.404
0.326,-0.127,0.853,0.916,1.221,1.526
0.515,-0.172,0.867,0.854,1.465,1.831
0.316,-0.127,0.875,0.916,1.343,2.075
0.503,-0.162,0.849,1.282,1.282,2.625
0.340,-0.141,0.891,1.526,1.282,2.563
0.461,-0.151,0.834,1.526,1.404,2.686
0.398,-0.155,0.896,1.587,1.648,2.441
0.403,-0.135,0.834,1.709,1.587,2.441
0.462,-0.167,0.891,2.014,1.770,2.014
0.351,-0.128,0.845,1.953,1.587,1.831
0.510,-0.176,0.877,2.258,1.343,1.709
0.324,-0.132,0.863,2.197,1.282,1.648
0.521,-0.178,0.858,2.136,1.404,1.648
0.333,-0.145,0.883,1.526,1.221,1.587
0.496,-0.169,0.841,0.977,0.977,1.648
0.370,-0.155,0.897,0.610,0.977,1.770
0.440,-0.146,0.837,0.244,1.343,1.892
0.433,-0.161,0.900,0.122,1.343,1.953
0.375,-0.127,0.843,0.488,1.099,2.319
0.488,-0.167,0.889,0.793,1.343,2.625
0.333,-0.120,0.855,1.221,1.038,2.747
0.519,-0.166,0.868,1.709,0.977,2.808
0.319,-0.124,0.873,1.953,0.916,2.441
0.509,-0.163,0.845,2.197,1.038,2.014
0.346,-0.140,0.885,2.258,0.854,1.465
0.470,-0.152,0.830,1.953,0.671,1.282
0.399,-0.156,0.895,1.709,0.427,0.732
0.404,-0.138,0.834,1.526,0.671,0.549
0.457,-0.170,0.896,1.526,0.854,0.427
0.347,-0.132,0.849,1.526,0.732,0.610
0.499,-0.180,0.883,1.770,0.916,0.916
0.313,-0.135,0.868,1.526,1.160,1.221
0.514,-0.180,0.860,1.526,1.831,1.648
0.326,-0.143,0.881,1.404,1.709,1.953
0.494,-0.165,0.838,1.099,1.587,2.563
0.371,-0.152,0.893,0.854,1.465,2.869
0.439,-0.149,0.832,0.610,1.038,3.357
0.429,-0.167,0.897,0.366,1.160,2.930
0.338,-0.119,0.855,0.732,0.183,2.075
0.521,-0.167,0.873,1.282,0.305,1.831
0.320,-0.125,0.878,1.770,0.305,1.282
0.510,-0.167,0.852,2.380,0.610,1.038
0.341,-0.142,0.888,2.441,0.732,0.610
0.464,-0.153,0.834,1.953,0.671,0.427
0.390,-0.155,0.896,1.526,0.916,0.122
0.402,-0.136,0.836,1.038,1.038,0.671
0.454,-0.165,0.899,1.221,0.977,1.160
0.344,-0.126,0.851,1.404,1.099,2.136
0.496,-0.176,0.880,1.892,1.709,2.808
0.313,-0.132,0.862,1.892,1.831,3.113
0.515,-0.179,0.855,1.770,2.258,3.357
0.331,-0.142,0.875,1.343,1.770,3.052
0.501,-0.164,0.835,0.977,0.916,3.235
0.372,-0.148,0.891,0.793,0.305,2.930
0.443,-0.146,0.836,0.610,0.305,2.808
0.426,-0.163,0.905,0.916,0.366,2.075
0.377,-0.135,0.848,1.221,0.916,1.465
0.481,-0.175,0.893,1.892,1.343,0.916
0.329,-0.130,0.855,1.953,1.160,0.488
0.518,-0.178,0.866,2.014,1.526,0.427
0.321,-0.134,0.869,1.770,0.732,0.549
0.514,-0.172,0.847,1.648,0.549,1.282
0.343,-0.147,0.888,1.465,0.427,1.648
0.468,-0.160,0.837,1.282,0.488,2.075
0.391,-0.160,0.900,0.977,0.671,1.953
0.403,-0.140,0.838,0.610,0.671,2.136
0.450,-0.168,0.899,0.916,1.099,1.831
0.345,-0.128,0.849,1.038,1.282,1.648
0.501,-0.174,0.880,1.221,1.770,1.831
0.318,-0.126,0.862,1.343,1.404,1.953
0.515,-0.170,0.857,1.709,1.587,2.197
0.325,-0.136,0.878,1.526,1.465,2.014
0.494,-0.163,0.840,1.587,1.282,2.258
0.367,-0.150,0.894,1.465,0.916,2.014
0.442,-0.148,0.833,1.282,0.793,2.075
0.426,-0.164,0.898,1.404,0.671,1.526
0.376,-0.135,0.838,1.221,0.916,1.099
0.481,-0.173,0.888,1.343,1.282,0.854
0.330,-0.127,0.856,1.465,1.221,0.549
0.512,-0.174,0.872,1.709,1.221,0.610
0.312,-0.133,0.875,1.770,1.160,0.916
0.505,-0.173,0.849,1.770,1.709,1.343
0.341,-0.147,0.885,1.526,1.709,1.465
0.471,-0.158,0.832,1.160,1.282,2.136
0.395,-0.158,0.894,0.732,0.916,2.563
0.411,-0.141,0.835,0.183,0.854,2.686
0.456,-0.171,0.900,0.122,1.160,2.625
0.352,-0.133,0.854,0.305,1.221,2.380
0.506,-0.179,0.885,0.977,1.648,1.892
0.326,-0.132,0.864,1.160,1.465,1.343
0.525,-0.177,0.856,1.160,1.465,1.282
0.329,-0.138,0.878,0.916,0.793,1.221
0.495,-0.159,0.843,0.671,0.732,1.221
0.364,-0.143,0.901,0.671,0.916,1.099
0.439,-0.142,0.844,1.160,1.343,1.526
0.421,-0.161,0.908,1.831,1.526,1.709
0.377,-0.133,0.844,2.319,1.831,1.709
0.483,-0.172,0.888,2.319,1.892,1.709
0.334,-0.124,0.848,1.770,1.526,1.770
0.519,-0.169,0.865,1.221,1.343,1.953
0.319,-0.124,0.870,0.854,0.977,2.136
0.513,-0.162,0.849,1.038,0.916,2.563
0.341,-0.134,0.888,1.160,0.732,2.686
0.468,-0.147,0.834,1.404,0.793,2.869
0.391,-0.150,0.895,1.648,1.038,2.502
0.411,-0.136,0.832,1.648,0.977,2.502
0.454,-0.167,0.894,2.014,0.854,2.136
0.351,-0.132,0.844,2.136,0.854,2.075
0.502,-0.181,0.879,2.380,1.221,1.587
0.321,-0.136,0.861,2.380,1.038,1.221
0.518,-0.180,0.857,2.014,1.038,1.099
0.326,-0.142,0.880,1.648,0.854,0.793
0.494,-0.168,0.844,1.465,0.916,0.977
0.360,-0.155,0.901,1.404,0.854,0.977
0.437,-0.154,0.839,1.465,1.160,1.404
0.421,-0.171,0.902,1.709,1.343,1.526
0.376,-0.141,0.842,1.892,1.160,2.136
0.479,-0.183,0.887,1.831,1.465,2.258
0.331,-0.139,0.849,1.526,1.526,2.563
0.513,-0.183,0.865,1.343,1.404,2.625
0.318,-0.135,0.868,0.854,1.221,2.380
0.511,-0.168,0.848,0.549,1.404,2.319
0.340,-0.138,0.888,0.427,1.099,1.770
0.473,-0.150,0.838,0.977,1.282,1.526
0.393,-0.155,0.900,1.648,1.221,1.099
0.413,-0.143,0.836,2.014,1.221,1.038
0.457,-0.176,0.892,2.136,1.343,0.549
0.356,-0.140,0.841,1.831,0.793,0.366
0.505,-0.186,0.878,1.221,1.099,0.305
0.321,-0.137,0.859,0.610,0.916,0.549
0.517,-0.175,0.859,0.061,0.793,0.793
0.320,-0.132,0.883,-0.427,0.671,1.160
0.490,-0.156,0.849,-0.244,0.793,1.770
0.357,-0.142,0.901,0.305,0.977,2.075
0.437,-0.143,0.839,0.916,1.465,2.563
0.420,-0.160,0.899,1.404,1.831,2.625
0.381,-0.133,0.836,1.648,1.648,2.563
0.483,-0.173,0.885,1.648,1.892,2.136
0.335,-0.127,0.850,1.282,1.831,1.892
0.517,-0.175,0.868,1.404,1.770,1.770
0.319,-0.129,0.871,1.282,1.343,1.587
0.513,-0.168,0.850,1.343,1.465,1.709
0.340,-0.143,0.889,1.221,1.282,1.709
0.471,-0.157,0.839,1.160,1.648,1.892
0.390,-0.159,0.899,1.160,1.709,1.526
0.412,-0.142,0.836,0.854,1.404,1.831
0.454,-0.169,0.894,0.977,1.465,1.892
0.353,-0.129,0.845,0.977,1.343,1.953
0.502,-0.175,0.880,1.038,1.526,2.075
0.322,-0.127,0.860,1.282,1.221,1.953
0.517,-0.171,0.857,1.465,1.099,2.014
0.324,-0.132,0.878,1.404,0.916,1.648
0.496,-0.161,0.841,1.282,1.282,1.465
0.361,-0.149,0.894,1.282,1.160,1.160
0.442,-0.148,0.834,1.221,1.160,1.343
0.422,-0.166,0.897,1.099,1.160,1.221
0.383,-0.139,0.839,1.038,0.977,1.404
0.480,-0.177,0.888,1.221,1.038,1.587
0.315,-0.134,0.874,1.099,1.343,2.014
0.511,-0.171,0.855,1.038,1.404,2.319
0.342,-0.144,0.891,1.099,1.526,2.380
0.477,-0.158,0.839,1.099,1.587,2.686
0.399,-0.158,0.897,1.282,1.648,2.441
0.420,-0.140,0.834,1.343,1.221,2.441
0.457,-0.166,0.894,1.221,1.160,2.197
0.358,-0.126,0.844,0.793,1.221,1.892
0.504,-0.172,0.881,1.160,1.160,1.709
0.323,-0.124,0.861,1.343,0.732,1.526
0.518,-0.168,0.860,1.526,0.854,1.282
0.324,-0.130,0.880,1.343,0.977,1.099
0.497,-0.159,0.844,1.343,1.099,1.221
0.362,-0.146,0.896,1.465,1.038,1.099
0.442,-0.148,0.835,1.526,1.221,1.404
0.419,-0.165,0.898,1.770,1.587,1.221
0.384,-0.138,0.835,1.648,1.526,1.404
0.482,-0.175,0.886,1.709,1.282,1.587
0.334,-0.126,0.850,1.526,0.854,2.075
0.514,-0.172,0.869,1.404,1.160,2.319
0.316,-0.128,0.872,1.587,0.916,2.502
0.511,-0.168,0.854,1.465,1.160,2.869
0.343,-0.143,0.892,1.709,1.282,2.380
0.480,-0.160,0.839,1.953,1.221,2.197
0.398,-0.162,0.895,1.953,0.977,1.709
0.423,-0.150,0.829,1.709,0.916,1.526
0.460,-0.176,0.891,1.587,0.732,0.977
0.359,-0.134,0.844,1.099,0.427,0.610
0.501,-0.178,0.881,0.916,0.549,0.427
0.317,-0.130,0.865,0.977,0.488,0.488
0.516,-0.176,0.866,1.099,0.671,0.916
0.322,-0.138,0.884,1.343,0.854,1.160
0.494,-0.165,0.844,1.465,1.038,1.770
0.359,-0.151,0.892,1.282,1.099,1.953
0.440,-0.150,0.831,0.854,1.221,2.441
0.417,-0.163,0.896,0.671,1.282,2.502
0.378,-0.130,0.841,0.610,1.099,2.808
0.474,-0.167,0.892,1.038,1.465,2.930
0.326,-0.123,0.855,1.465,1.709,3.052
0.509,-0.173,0.870,2.136,2.075,3.052
0.321,-0.132,0.865,2.319,2.075,2.502
0.521,-0.171,0.843,2.258,1.282,2.869
0.350,-0.144,0.881,2.014,0.732,2.563
0.484,-0.161,0.831,1.648,0.610,2.380
0.399,-0.164,0.895,1.526,0.366,1.648
0.418,-0.145,0.836,1.282,0.244,1.038
0.455,-0.170,0.899,1.099,0.366,0.305
0.353,-0.129,0.850,1.099,0.610,0.122
0.495,-0.174,0.887,1.465,1.099,0.061
0.317,-0.129,0.865,1.526,1.282,0.305
0.514,-0.175,0.862,1.831,1.343,1.160
0.320,-0.136,0.877,1.709,1.282,1.953
0.495,-0.166,0.839,1.526,1.526,2.991
0.360,-0.152,0.892,1.038,1.099,3.418
0.442,-0.150,0.832,0.793,1.038,3.967
0.422,-0.161,0.896,0.732,1.221,3.967
0.382,-0.128,0.839,0.610,1.099,3.845
0.479,-0.166,0.890,0.916,1.465,3.479
0.336,-0.122,0.854,1.465,1.343,2.930
0.518,-0.172,0.872,2.197,1.282,2.380
0.324,-0.129,0.871,2.441,1.160,1.465
0.518,-0.172,0.849,2.563,1.282,0.793
0.345,-0.146,0.887,2.258,1.221,-0.183
0.478,-0.162,0.836,2.136,1.404,-0.427
0.392,-0.163,0.897,2.136,1.221,-0.427
0.415,-0.147,0.834,1.648,0.793,0.061
0.453,-0.171,0.895,1.465,0.671,0.610
0.354,-0.133,0.847,1.221,0.488,1.465
0.499,-0.178,0.884,1.221,0.916,2.319
0.323,-0.130,0.863,1.160,0.977,2.869
0.520,-0.172,0.861,1.404,1.038,3.601
0.325,-0.132,0.880,1.343,0.793,3.601
0.500,-0.160,0.843,1.465,1.038,3.479
0.367,-0.146,0.895,1.404,1.038,3.052
0.451,-0.146,0.834,1.587,0.916,2.747
0.430,-0.160,0.896,1.709,0.977,2.075
0.395,-0.129,0.835,1.709,0.671,1.831
0.493,-0.164,0.887,1.526,0.549,1.648
0.348,-0.116,0.851,1.282,0.061,1.709
0.525,-0.161,0.875,1.465,-0.244,1.831
0.323,-0.112,0.879,1.526,-0.244,1.892
0.516,-0.148,0.861,2.136,0.244,1.831
0.343,-0.122,0.898,2.869,0.305,1.953
0.480,-0.139,0.844,3.418,0.488,2.014
0.396,-0.141,0.899,3.906,0.488,1.953
0.418,-0.126,0.831,4.089,0.427,2.197
0.459,-0.156,0.887,3.906,0.610,2.258
0.364,-0.117,0.839,3.662,0.183,2.380
0.509,-0.161,0.879,3.723,-0.061,2.747
0.332,-0.116,0.864,3.845,-0.671,3.052
0.524,-0.162,0.864,4.517,-1.221,3.113
0.327,-0.128,0.884,5.188,-1.587,2.686
0.499,-0.164,0.843,5.615,-1.465,2.380
0.360,-0.155,0.895,5.737,-1.526,1.587
0.441,-0.158,0.835,5.615,-1.587,1.099
0.415,-0.178,0.900,5.737,-1.343,0.427
0.377,-0.154,0.839,5.493,-1.343,0.549
0.468,-0.195,0.887,5.737,-1.343,0.732
0.320,-0.153,0.851,5.493,-1.465,1.038
0.496,-0.204,0.868,5.371,-0.977,1.465
0.299,-0.164,0.870,5.066,-1.038,1.709
0.492,-0.205,0.848,4.639,-0.854,2.319
0.317,-0.179,0.887,4.150,-0.916,2.441
0.449,-0.194,0.834,3.479,-0.549,2.747
0.364,-0.195,0.896,3.174,-0.061,2.625
0.391,-0.183,0.834,2.869,0.183,2.869
0.431,-0.209,0.893,2.686,0.549,2.747
0.337,-0.173,0.845,2.686,0.671,2.869
0.483,-0.218,0.880,2.625,0.916,2.625
0.305,-0.170,0.860,2.563,0.854,2.380
0.500,-0.214,0.858,2.380,1.038,2.136
0.308,-0.174,0.877,1.770,1.038,1.526
0.482,-0.199,0.840,1.099,1.099,1.343
0.346,-0.180,0.894,0.793,0.916,0.977
0.427,-0.177,0.836,0.244,0.916,1.160
0.404,-0.189,0.902,0.000,1.282,0.854
0.368,-0.159,0.841,0.000,1.587,1.038
0.465,-0.192,0.889,0.061,2.014,1.343
0.322,-0.144,0.850,-0.183,2.380,1.648
0.505,-0.189,0.868,-0.244,2.563,1.892
0.338,-0.145,0.890,-0.793,2.014,2.747
0.478,-0.157,0.839,-0.488,1.953,3.174
0.392,-0.153,0.902,-0.427,1.587,2.930
0.416,-0.138,0.841,-0.183,1.465,2.991
0.452,-0.164,0.901,0.427,1.648,2.502
0.357,-0.126,0.850,0.916,1.404,2.136
0.501,-0.172,0.884,1.282,1.404,1.831
0.324,-0.126,0.864,1.526,1.038,1.343
0.519,-0.174,0.863,1.770,1.282,1.099
0.321,-0.137,0.880,1.892,1.099,0.916
0.492,-0.168,0.843,1.831,1.343,1.160
0.359,-0.155,0.894,1.770,1.526,0.854
0.444,-0.155,0.837,1.831,1.099,1.465
0.421,-0.169,0.902,2.014,1.038,1.343
0.384,-0.143,0.842,2.319,1.099,2.014
0.480,-0.185,0.891,2.686,1.160,2.258
0.334,-0.145,0.851,2.625,0.854,2.319
0.511,-0.194,0.871,2.502,0.793,2.441
0.314,-0.148,0.872,1.892,0.793,1.892
0.508,-0.185,0.853,1.770,0.916,1.831
0.331,-0.157,0.891,1.587,0.671,1.587
0.465,-0.173,0.839,1.709,0.854,2.014
0.382,-0.175,0.899,1.709,1.038,1.831
0.404,-0.160,0.834,1.587,0.793,2.014
0.439,-0.186,0.893,1.526,0.977,1.831
0.343,-0.147,0.842,1.404,1.160,1.892
0.488,-0.192,0.878,1.160,1.282,1.953
0.309,-0.143,0.859,1.160,1.160,2.014
0.506,-0.188,0.858,1.282,1.343,2.136
0.313,-0.149,0.882,1.282,1.160,1.770
0.487,-0.177,0.845,1.221,1.282,2.136
0.354,-0.162,0.896,1.343,1.221,1.831
0.441,-0.161,0.835,1.526,1.343,1.953
0.418,-0.175,0.897,1.526,1.343,1.892
0.382,-0.148,0.839,1.404,1.099,2.014
0.478,-0.185,0.891,1.343,1.038,1.892
0.336,-0.137,0.855,1.099,0.793,1.770
0.515,-0.182,0.875,1.221,0.732,1.831
0.320,-0.136,0.872,1.343,0.427,1.831
0.514,-0.176,0.853,1.404,0.488,2.319
0.337,-0.149,0.889,1.526,-0.061,2.136
0.470,-0.166,0.840,1.465,0.305,2.075
0.384,-0.166,0.901,1.343,0.488,1.648
0.408,-0.149,0.838,1.282,0.610,1.465
0.445,-0.178,0.897,1.770,0.854,1.160
0.352,-0.142,0.845,1.953,0.671,1.343
0.493,-0.188,0.881,2.197,0.366,1.465
0.312,-0.142,0.861,2.319,0.305,1.526
0.509,-0.189,0.861,2.502,0.793,1.526
0.312,-0.151,0.882,2.563,0.488,1.404
0.484,-0.181,0.845,2.563,0.793,1.709
0.349,-0.167,0.896,2.686,0.977,1.465
0.435,-0.169,0.835,2.808,0.854,1.648
0.409,-0.183,0.896,2.563,0.610,1.587
0.373,-0.158,0.835,2.014,0.610,1.709
0.467,-0.196,0.885,1.648,0.854,1.465
0.321,-0.152,0.852,1.160,0.732,1.526
0.498,-0.196,0.872,1.038,1.221,1.465
0.304,-0.149,0.874,1.038,1.221,1.465
0.497,-0.188,0.855,1.404,1.404,1.892
0.323,-0.163,0.890,1.648,1.648,2.258
0.464,-0.182,0.838,1.709,1.953,2.686
0.382,-0.182,0.895,1.465,1.892,2.930
0.411,-0.164,0.830,1.038,1.221,3.052
0.446,-0.187,0.891,0.671,1.343,2.930
0.353,-0.148,0.845,0.305,1.221,2.625
0.493,-0.189,0.884,0.488,1.282,2.380
0.315,-0.141,0.865,0.549,1.221,2.014
0.515,-0.186,0.864,0.854,1.465,1.648
0.320,-0.147,0.881,0.977,1.160,1.465
0.496,-0.176,0.845,1.038,1.160,1.465
0.361,-0.161,0.895,0.854,1.099,0.916
0.444,-0.159,0.835,0.732,0.916,1.343
0.415,-0.170,0.900,0.671,0.793,1.465
0.377,-0.146,0.840,0.916,0.793,1.831
0.471,-0.183,0.893,0.916,0.977,1.709
0.326,-0.137,0.857,0.916,0.854,1.709
0.505,-0.180,0.877,1.404,1.099,1.770
0.311,-0.135,0.875,1.465,1.343,1.587
0.506,-0.175,0.856,2.014,1.343,1.709
0.332,-0.148,0.889,2.319,1.038,1.526
0.470,-0.166,0.836,2.502,1.099,1.831
0.384,-0.170,0.893,2.625,0.977,2.014
0.410,-0.159,0.832,2.319,0.854,1.892
0.445,-0.186,0.891,2.014,0.793,1.465
0.350,-0.148,0.842,1.648,0.610,1.404
0.491,-0.191,0.880,1.526,0.610,1.282
0.312,-0.146,0.864,1.282,0.610,1.038
0.506,-0.192,0.868,1.282,0.793,0.977
0.311,-0.153,0.887,1.404,0.916,0.916
0.487,-0.182,0.850,1.404,1.465,1.221
0.352,-0.169,0.896,1.709,1.587,1.160
0.438,-0.170,0.834,1.709,1.526,1.526
0.414,-0.182,0.896,1.648,1.526,1.953
0.381,-0.155,0.835,1.282,1.282,2.258
0.474,-0.192,0.886,1.404,0.916,2.502
0.330,-0.148,0.849,1.160,0.549,2.747
0.506,-0.194,0.870,1.038,0.793,2.747
0.311,-0.147,0.872,0.610,0.916,2.380
0.505,-0.183,0.853,0.610,1.038,2.014
0.330,-0.153,0.895,0.671,0.916,1.648
0.463,-0.164,0.841,0.793,1.038,1.709
0.378,-0.162,0.904,1.038,1.099,1.404
0.404,-0.148,0.842,1.465,1.221,1.648
0.440,-0.178,0.897,2.075,1.465,1.648
0.349,-0.145,0.845,2.563,1.282,1.709
0.493,-0.192,0.876,2.686,1.404,1.892
0.314,-0.149,0.854,2.319,1.160,2.014
0.511,-0.194,0.856,2.014,1.282,2.136
0.315,-0.157,0.876,1.404,1.221,1.892
0.490,-0.185,0.843,0.977,1.282,2.014
0.355,-0.165,0.894,0.854,0.916,1.892
0.439,-0.163,0.840,0.793,0.610,2.197
0.412,-0.176,0.904,1.099,0.977,2.136
0.378,-0.152,0.844,1.526,1.099,2.502
0.470,-0.191,0.893,2.136,1.343,2.380
0.330,-0.149,0.852,2.014,1.282,2.136
0.510,-0.197,0.870,1.709,1.587,1.831
0.313,-0.150,0.867,1.221,1.160,1.404
0.508,-0.187,0.849,0.793,1.282,1.587
0.345,-0.145,0.844,1.099,1.038,1.770
0.492,-0.188,0.880,1.343,1.343,1.831
0.315,-0.141,0.863,1.343,0.854,1.892
0.514,-0.186,0.864,1.404,1.099,2.136
0.317,-0.150,0.882,1.709,1.160,2.075
0.492,-0.181,0.846,2.014,0.916,2.258
0.353,-0.168,0.893,1.892,1.038,1.953
0.441,-0.170,0.836,1.526,1.221,1.709
0.414,-0.181,0.898,1.221,1.221,1.099
0.382,-0.151,0.841,0.916,0.977,1.038
0.471,-0.185,0.895,1.038,0.916,1.099
0.326,-0.143,0.856,1.282,1.038,1.221
0.503,-0.193,0.874,1.770,1.343,1.343
0.309,-0.148,0.869,1.709,1.404,1.404
0.512,-0.186,0.847,1.526,1.343,1.892
0.336,-0.152,0.884,1.160,0.305,2.319
0.476,-0.167,0.838,1.038,0.000,2.930
0.383,-0.165,0.901,1.038,0.000,2.930
0.408,-0.151,0.842,1.282,0.244,2.869
0.439,-0.181,0.902,1.709,0.732,2.319
0.348,-0.146,0.849,1.892,1.038,1.770
0.489,-0.191,0.883,2.136,1.343,1.038
0.310,-0.145,0.860,1.831,1.160,0.549
0.505,-0.191,0.861,1.831,1.404,0.549
0.313,-0.153,0.878,1.526,1.465,0.610
0.491,-0.178,0.842,1.709,1.221,1.282
0.352,-0.161,0.891,1.892,0.732,1.892
0.438,-0.163,0.833,1.953,0.610,2.625
0.405,-0.179,0.899,1.831,0.549,2.869
0.374,-0.153,0.840,1.831,0.610,2.747
0.467,-0.193,0.892,2.014,0.916,2.380
0.328,-0.148,0.854,1.770,0.854,2.136
0.505,-0.195,0.874,1.892,1.160,1.953
0.311,-0.149,0.871,1.709,1.160,1.465
0.506,-0.190,0.853,1.831,1.343,1.465
0.329,-0.159,0.889,1.892,1.221,1.099
0.469,-0.175,0.840,1.709,1.160,1.343
0.381,-0.174,0.898,1.892,1.099,1.526
0.411,-0.160,0.835,1.953,0.793,1.953
0.442,-0.186,0.895,1.953,0.671,2.136
0.351,-0.151,0.844,1.953,0.671,2.258
0.489,-0.194,0.882,1.953,0.916,2.258
0.312,-0.147,0.861,1.770,0.916,2.014
0.507,-0.193,0.862,1.648,1.282,1.770
0.312,-0.152,0.880,1.404,1.099,1.465
0.488,-0.180,0.844,1.587,1.160,1.648
0.348,-0.162,0.893,1.526,1.221,1.465
0.440,-0.164,0.836,1.526,1.282,1.770
0.406,-0.179,0.898,1.770,1.221,1.709
0.375,-0.153,0.837,1.526,1.221,2.014
0.466,-0.188,0.889,1.648,1.099,1.831
0.326,-0.144,0.853,1.709,1.099,2.014
0.504,-0.191,0.873,1.953,1.160,2.258
0.309,-0.147,0.872,2.075,0.977,2.319
0.507,-0.187,0.853,2.075,1.160,2.625
0.333,-0.158,0.886,2.136,1.038,2.258
0.473,-0.173,0.836,1.892,0.916,2.197
0.383,-0.169,0.897,1.587,0.854,1.831
0.412,-0.154,0.835,1.465,0.854,1.648
0.444,-0.178,0.898,1.709,0.854,1.343
0.355,-0.137,0.849,2.136,0.671,1.465
0.499,-0.182,0.886,2.747,0.977,1.770
0.326,-0.134,0.865,2.869,0.732,1.770
0.526,-0.177,0.868,3.052,0.671,2.258
0.336,-0.132,0.886,3.052,0.305,2.747
0.515,-0.155,0.849,2.869,0.061,3.357
0.376,-0.131,0.900,2.686,-0.183,3.479
0.464,-0.129,0.840,2.686,-0.244,3.784
0.429,-0.137,0.901,2.991,-0.366,3.601
0.394,-0.101,0.842,3.174,-0.916,3.784
0.479,-0.133,0.895,3.784,-1.221,3.601
0.336,-0.090,0.859,4.761,-1.526,3.540
0.511,-0.140,0.879,6.104,-1.404,3.479
0.319,-0.103,0.879,7.812,-1.709,3.357
0.513,-0.156,0.853,9.094,-1.648,3.540
0.341,-0.139,0.885,9.644,-1.770,3.235
0.480,-0.165,0.829,10.132,-1.953,2.991
0.386,-0.160,0.891,10.010,-2.625,2.625
0.410,-0.156,0.828,9.338,-2.869,2.808
0.435,-0.184,0.895,9.155,-2.991,2.502
0.337,-0.153,0.856,9.521,-3.113,2.258
0.468,-0.202,0.883,10.315,-2.747,2.258
0.298,-0.164,0.873,11.108,-2.441,2.319
0.484,-0.216,0.859,11.963,-2.075,2.991
0.294,-0.197,0.880,11.963,-2.014,3.479
0.468,-0.233,0.833,11.719,-1.709,4.028
0.331,-0.224,0.887,11.169,-1.465,4.028
0.421,-0.227,0.827,10.193,-1.282,4.272
0.392,-0.243,0.892,9.521,-1.160,4.211
0.358,-0.222,0.837,8.667,-1.526,4.395
0.444,-0.260,0.885,8.423,-1.465,4.028
0.303,-0.223,0.854,7.935,-1.282,3.357
0.472,-0.268,0.866,7.507,-0.916,2.441
0.281,-0.227,0.871,6.775,-0.793,1.648
0.471,-0.263,0.844,6.165,-0.671,1.282
0.292,-0.237,0.885,5.371,-0.671,0.854
0.428,-0.248,0.831,4.578,-0.366,0.916
0.339,-0.245,0.896,4.272,0.000,0.366
0.366,-0.229,0.833,3.845,0.366,0.671
0.400,-0.252,0.891,3.662,1.038,0.793
0.312,-0.215,0.839,3.418,1.282,1.221
0.455,-0.255,0.873,3.113,1.892,1.831
0.286,-0.211,0.855,2.502,2.197,2.197
0.484,-0.256,0.854,1.953,2.319,2.686
0.296,-0.217,0.877,1.221,2.441,2.319
0.476,-0.243,0.841,0.793,2.747,2.319
0.343,-0.222,0.894,0.305,2.563,1.953
0.434,-0.219,0.836,0.061,2.441,2.075
0.405,-0.230,0.900,-0.244,2.319,2.014
0.372,-0.202,0.842,-0.366,2.441,2.136
0.465,-0.233,0.892,-0.488,2.502,2.136
0.325,-0.183,0.857,-0.610,1.953,2.197
0.500,-0.222,0.874,-0.916,1.648,2.380
0.304,-0.171,0.874,-1.099,1.404,2.441
0.495,-0.206,0.855,-0.854,1.465,2.686
0.319,-0.176,0.890,-0.732,1.343,2.380
0.457,-0.191,0.839,-0.122,1.709,2.258
0.367,-0.191,0.896,0.427,1.953,1.709
0.400,-0.181,0.831,0.610,2.136,1.648
0.434,-0.209,0.891,0.732,2.136,1.099
0.299,-0.166,0.861,0.183,1.587,0.793
0.463,-0.203,0.866,0.427,1.587,1.099
0.385,-0.184,0.864,0.793,1.099,1.709
0.393,-0.184,0.866,1.160,1.160,2.136
0.417,-0.190,0.864,1.404,1.587,2.319
0.362,-0.178,0.870,1.587,1.770,2.319
0.453,-0.197,0.857,1.587,1.709,2.441
0.355,-0.179,0.881,1.770,1.892,2.380
0.445,-0.193,0.847,1.892,1.953,2.441
0.382,-0.197,0.893,2.319,1.831,2.258
0.403,-0.191,0.842,2.625,2.136,2.136
0.436,-0.219,0.889,2.991,1.892,1.953
0.350,-0.190,0.847,2.686,1.221,1.892
0.478,-0.233,0.875,2.380,1.465,1.770
0.312,-0.191,0.858,2.014,1.343,1.648
0.498,-0.230,0.859,1.953,1.343,1.648
0.309,-0.194,0.882,1.770,0.793,1.648
0.476,-0.224,0.845,2.014,0.916,1.770
0.340,-0.213,0.896,2.258,0.977,1.709
0.422,-0.217,0.835,2.075,0.977,1.831
0.394,-0.230,0.895,1.770,1.160,1.526
0.363,-0.202,0.835,0.977,1.404,1.587
0.457,-0.235,0.883,0.671,1.465,1.709
0.315,-0.186,0.849,0.122,1.343,2.075
0.489,-0.224,0.871,-0.244,1.404,2.747
0.293,-0.173,0.875,-0.183,1.404,3.113
0.487,-0.211,0.856,0.427,1.892,3.296
0.317,-0.184,0.892,0.916,2.014,3.174
0.455,-0.202,0.837,1.465,2.441,3.296
0.371,-0.203,0.893,1.648,2.563,2.625
0.399,-0.189,0.826,1.526,2.747,2.319
0.439,-0.216,0.885,1.221,2.747,1.587
0.347,-0.178,0.840,0.977,2.319,1.465
0.489,-0.218,0.877,1.160,2.136,1.221
0.311,-0.172,0.862,1.221,1.831,1.160
0.504,-0.217,0.862,1.709,1.831,1.343
0.309,-0.182,0.886,1.770,1.770,1.160
0.485,-0.212,0.847,1.770,1.892,1.343
0.353,-0.198,0.897,1.770,1.587,1.160
0.438,-0.198,0.834,1.587,1.587,1.465
0.413,-0.213,0.896,1.404,1.648,1.587
0.375,-0.186,0.836,1.160,1.709,1.831
0.466,-0.224,0.885,0.977,1.770,2.075
0.319,-0.179,0.849,0.671,1.526,2.136
0.496,-0.226,0.867,0.854,1.892,2.258
0.301,-0.181,0.869,0.732,1.831,2.075
0.495,-0.217,0.850,0.793,1.953,2.197
0.326,-0.190,0.887,1.099,2.136,2.014
0.464,-0.203,0.833,1.160,1.831,2.380
0.380,-0.201,0.894,1.282,1.160,2.258
0.403,-0.187,0.833,1.343,1.099,2.197
0.441,-0.216,0.895,1.404,1.160,1.831
0.344,-0.178,0.847,1.709,0.793,1.709
0.487,-0.223,0.880,1.892,1.038,1.343
0.307,-0.179,0.863,1.892,0.977,0.854
0.500,-0.225,0.860,1.953,1.343,0.732
0.305,-0.188,0.880,1.831,1.221,0.549
0.479,-0.217,0.838,1.648,1.648,0.977
0.345,-0.201,0.889,1.587,1.709,1.282
0.431,-0.200,0.830,1.465,1.526,1.892
0.406,-0.215,0.892,1.465,1.465,2.502
0.370,-0.189,0.835,1.343,1.160,3.418
0.465,-0.228,0.886,1.282,1.343,3.662
0.322,-0.184,0.854,0.854,1.282,3.784
0.506,-0.230,0.872,0.793,1.526,3.479
0.315,-0.182,0.873,0.916,1.160,2.869
0.509,-0.216,0.851,0.793,0.977,2.686
0.334,-0.188,0.889,0.488,0.671,2.014
0.465,-0.201,0.836,0.488,0.793,1.465
0.376,-0.199,0.895,0.793,0.854,0.916
0.394,-0.185,0.832,0.854,0.854,0.732
0.429,-0.212,0.891,1.099,1.099,0.427
0.331,-0.175,0.841,1.343,1.160,0.671
0.479,-0.219,0.875,1.648,1.465,0.977
0.302,-0.175,0.858,1.709,1.282,1.343
0.498,-0.222,0.855,1.770,1.465,2.197
0.307,-0.185,0.874,1.648,1.465,2.441
0.484,-0.213,0.837,1.282,1.526,2.869
0.350,-0.195,0.891,1.038,1.282,2.747
0.435,-0.192,0.834,0.854,1.343,2.625
0.409,-0.205,0.900,0.977,1.099,2.136
0.369,-0.178,0.843,1.099,1.099,2.136
0.465,-0.217,0.891,1.709,1.404,1.709
0.319,-0.177,0.853,2.014,1.587,1.343
0.500,-0.226,0.867,2.380,1.648,1.221
0.303,-0.186,0.867,2.197,1.526,1.099
0.496,-0.227,0.846,1.770,1.709,1.404
0.329,-0.200,0.885,1.221,1.770,1.404
0.467,-0.210,0.835,1.038,1.404,2.014
0.385,-0.207,0.896,0.854,0.854,2.441
0.409,-0.192,0.836,0.916,0.427,3.113
0.446,-0.220,0.895,1.038,0.854,2.930
0.349,-0.181,0.846,0.916,0.732,2.991
0.496,-0.226,0.881,1.099,0.977,2.563
0.317,-0.178,0.864,1.221,0.793,1.770
0.514,-0.222,0.861,1.221,0.671,1.343
0.316,-0.184,0.879,1.282,0.366,0.732
0.484,-0.210,0.841,1.282,0.366,0.366
0.346,-0.195,0.893,1.221,0.305,-0.061
0.423,-0.196,0.831,1.221,0.427,0.488
0.397,-0.211,0.891,1.343,0.488,0.366
0.359,-0.186,0.832,1.465,0.671,0.916
0.455,-0.223,0.881,1.282,0.671,1.404
0.310,-0.179,0.848,0.977,0.549,1.953
0.491,-0.224,0.866,0.916,0.854,2.441
0.295,-0.177,0.870,0.854,0.854,2.563
0.488,-0.215,0.853,1.038,1.160,2.808
0.317,-0.189,0.891,1.526,1.587,2.502
0.453,-0.206,0.838,1.892,1.953,2.625
0.380,-0.209,0.894,2.136,2.014,2.319
0.406,-0.196,0.829,2.075,1.648,2.319
0.446,-0.226,0.886,1.648,1.404,2.075
0.349,-0.189,0.838,0.916,1.038,1.831
0.492,-0.231,0.875,0.549,0.916,1.526
0.309,-0.181,0.862,0.061,0.427,1.160
0.503,-0.221,0.862,-0.183,0.488,1.160
0.303,-0.181,0.887,-0.122,0.671,0.793
0.473,-0.209,0.851,0.305,0.977,1.038
0.339,-0.196,0.900,0.977,1.648,1.221
0.423,-0.195,0.835,1.282,2.014,1.770
0.371,-0.184,0.829,1.282,2.258,2.625
0.471,-0.221,0.879,0.916,1.709,3.235
0.325,-0.174,0.848,0.488,1.038,3.418
0.507,-0.219,0.868,0.305,1.099,3.418
0.311,-0.173,0.874,0.427,0.793,2.991
0.504,-0.211,0.855,0.793,0.732,2.625
0.333,-0.184,0.892,1.160,0.549,1.648
0.466,-0.200,0.838,1.709,0.549,1.160
0.384,-0.204,0.895,2.014,0.549,0.549
0.404,-0.192,0.831,1.892,0.610,0.061
0.442,-0.221,0.889,1.709,0.671,-0.244
0.340,-0.183,0.842,1.282,0.488,-0.122
0.484,-0.226,0.877,0.977,0.732,0.122
0.302,-0.177,0.861,0.671,0.610,0.549
0.498,-0.217,0.864,0.549,0.793,1.282
0.302,-0.177,0.885,0.549,0.854,1.770
0.472,-0.204,0.847,0.854,1.343,2.808
0.344,-0.189,0.896,1.282,1.465,3.052
0.426,-0.189,0.835,1.648,1.526,3.357
0.407,-0.207,0.894,2.014,1.343,3.296
0.365,-0.180,0.834,2.014,1.282,3.418
0.463,-0.220,0.881,2.014,1.465,2.991
0.315,-0.178,0.846,1.892,1.404,2.441
0.504,-0.227,0.862,1.709,1.648,1.953
0.310,-0.183,0.867,1.709,0.854,1.587
0.501,-0.220,0.847,1.526,0.610,1.648
0.330,-0.196,0.888,1.343,0.610,1.221
0.459,-0.210,0.839,1.526,0.732,1.221
0.375,-0.210,0.900,1.404,0.610,0.916
0.396,-0.193,0.840,1.404,1.038,0.977
0.438,-0.219,0.897,1.404,1.465,1.038
0.338,-0.182,0.850,1.526,1.404,1.587
0.485,-0.227,0.882,1.709,1.831,2.075
0.309,-0.182,0.861,1.526,1.953,2.563
0.509,-0.224,0.855,1.282,1.648,3.052
0.314,-0.182,0.875,0.916,0.916,3.235
0.485,-0.207,0.837,0.610,1.038,3.540
0.351,-0.192,0.891,0.732,0.854,3.113
0.429,-0.189,0.833,0.732,0.610,2.808
0.409,-0.204,0.896,1.099,0.854,2.075
0.366,-0.177,0.839,1.160,0.671,1.465
0.463,-0.217,0.887,1.587,0.732,0.977
0.314,-0.177,0.854,1.709,1.099,0.305
0.495,-0.225,0.868,2.014,1.526,0.000
0.299,-0.182,0.870,1.831,1.465,0.061
0.494,-0.222,0.848,1.831,1.587,0.427
0.323,-0.194,0.886,1.648,1.343,0.916
0.459,-0.208,0.834,1.160,1.343,2.014
0.380,-0.209,0.896,0.916,0.854,2.808
0.401,-0.192,0.836,0.610,0.549,3.540
0.445,-0.220,0.894,0.427,0.671,3.540
0.345,-0.178,0.847,0.305,0.549,3.418
0.492,-0.216,0.884,0.488,0.854,2.930
0.313,-0.167,0.868,0.793,0.977,2.136
0.510,-0.211,0.864,1.404,1.221,1.587
0.315,-0.175,0.884,1.892,0.977,1.038
0.487,-0.206,0.842,2.380,1.221,0.854
0.353,-0.196,0.888,2.563,1.282,0.305
0.432,-0.197,0.826,2.502,0.732,0.305
0.413,-0.213,0.888,2.014,0.488,0.183
0.367,-0.186,0.834,1.587,0.122,0.549
0.464,-0.225,0.886,1.160,0.000,0.854
0.313,-0.179,0.856,0.916,-0.122,1.221
0.489,-0.224,0.873,1.221,0.183,1.648
0.293,-0.179,0.876,1.160,0.549,1.648
0.489,-0.219,0.854,1.343,0.977,1.831
0.319,-0.194,0.892,1.587,0.916,1.831
0.452,-0.208,0.837,1.709,1.221,2.197
0.372,-0.211,0.893,1.770,1.648,2.075
0.394,-0.197,0.828,1.648,1.770,2.380
0.441,-0.225,0.887,1.282,1.526,2.258
0.339,-0.185,0.839,0.977,0.793,2.502
0.487,-0.225,0.873,0.854,0.916,2.441
0.305,-0.177,0.858,0.488,0.732,2.258
0.500,-0.220,0.859,0.366,0.793,2.014
0.307,-0.181,0.880,0.366,0.671,1.587
0.478,-0.207,0.844,0.793,0.977,1.343
0.346,-0.192,0.899,1.038,1.038,0.732
0.426,-0.192,0.837,1.282,1.343,0.793
0.405,-0.209,0.898,1.709,1.404,0.854
0.362,-0.183,0.837,1.892,1.587,1.160
0.467,-0.222,0.884,1.953,2.014,1.526
0.319,-0.178,0.852,1.709,1.404,1.953
0.501,-0.225,0.867,1.526,1.343,2.502
0.303,-0.178,0.871,1.343,1.343,2.563
0.500,-0.215,0.849,1.282,1.526,2.747
0.333,-0.188,0.890,1.221,1.343,2.686
0.463,-0.203,0.839,1.404,1.099,2.747
0.384,-0.208,0.897,1.404,0.671,2.380
0.402,-0.193,0.834,1.465,0.671,2.197
0.442,-0.222,0.891,1.282,0.671,1.648
0.340,-0.187,0.842,0.916,0.549,1.160
0.484,-0.228,0.878,0.916,0.793,0.793
0.301,-0.180,0.863,0.732,0.916,0.549
0.496,-0.222,0.860,0.732,1.099,0.732
0.302,-0.182,0.880,0.793,1.099,0.916
0.475,-0.209,0.841,1.221,1.282,1.465
0.345,-0.197,0.893,1.221,1.343,1.892
0.425,-0.196,0.832,1.160,1.282,2.502
0.405,-0.210,0.896,1.099,1.099,2.625
0.365,-0.182,0.839,0.977,1.160,2.747
0.467,-0.219,0.887,1.099,1.465,2.625
0.318,-0.173,0.853,1.221,1.221,2.319
0.501,-0.219,0.869,1.282,1.282,2.197
0.304,-0.176,0.871,1.404,1.160,1.892
0.497,-0.215,0.850,1.587,1.343,1.587
0.325,-0.190,0.888,1.709,1.282,1.160
0.456,-0.206,0.837,1.892,1.648,0.977
0.377,-0.207,0.896,1.770,1.892,0.732
0.399,-0.192,0.833,1.465,1.648,0.916
0.443,-0.219,0.893,1.282,1.221,1.160
0.340,-0.180,0.845,1.099,0.671,1.709
0.489,-0.223,0.879,1.099,0.854,2.014
0.308,-0.176,0.862,0.977,0.305,2.502
0.501,-0.219,0.860,1.160,0.427,2.991
0.308,-0.182,0.880,0.977,0.488,2.625
0.479,-0.211,0.843,1.221,0.977,2.686
0.348,-0.196,0.895,1.282,1.038,2.319
0.427,-0.195,0.836,1.404,1.343,2.197
0.409,-0.212,0.897,1.709,1.892,1.709
0.323,-0.181,0.849,1.953,1.404,1.282
0.503,-0.228,0.864,1.770,1.343,1.099
0.305,-0.183,0.869,1.282,1.038,0.732
0.500,-0.217,0.849,1.038,0.732,0.916
0.326,-0.188,0.890,1.099,0.183,0.854
0.455,-0.202,0.841,0.977,0.183,1.343
0.373,-0.203,0.902,1.038,0.610,1.221
0.393,-0.189,0.839,1.221,0.671,1.404
0.435,-0.216,0.893,1.587,0.793,1.465
0.334,-0.175,0.842,1.587,0.793,1.770
0.482,-0.220,0.874,1.953,1.221,2.014
0.302,-0.176,0.857,1.953,1.221,1.892
0.499,-0.222,0.854,2.197,1.343,2.075
0.307,-0.187,0.876,1.892,1.038,1.709
0.478,-0.216,0.839,1.709,1.221,1.587
0.347,-0.205,0.891,1.526,1.282,1.221
0.429,-0.197,0.835,1.404,1.038,1.160
0.410,-0.213,0.899,1.404,0.793,1.160
0.367,-0.188,0.840,1.343,0.854,1.648
0.466,-0.227,0.890,1.526,0.977,1.831
0.318,-0.187,0.856,1.526,1.099,1.770
0.499,-0.232,0.869,1.465,1.282,1.953
0.302,-0.184,0.872,1.221,1.099,1.770
0.495,-0.219,0.849,0.732,1.160,1.770
0.323,-0.190,0.889,0.671,1.099,1.587
0.454,-0.201,0.839,0.977,1.465,1.770
0.374,-0.203,0.899,1.282,1.587,1.709
0.396,-0.189,0.834,1.648,1.770,1.831
0.443,-0.221,0.890,2.014,1.709,1.831
0.343,-0.185,0.839,1.892,1.099,1.953
0.490,-0.230,0.871,1.526,0.916,1.709
0.308,-0.183,0.855,0.977,0.732,1.343
0.502,-0.223,0.857,0.671,0.488,1.404
0.306,-0.183,0.882,0.366,0.244,0.977
0.473,-0.208,0.847,0.488,0.610,1.221
0.338,-0.195,0.898,0.916,0.793,1.099
0.416,-0.193,0.837,1.343,1.221,1.526
0.397,-0.212,0.899,1.770,1.709,1.526
0.360,-0.185,0.837,2.014,1.831,1.953
0.462,-0.222,0.883,2.136,1.770,2.502
0.315,-0.178,0.846,1.831,1.648,2.930
0.497,-0.225,0.863,1.648,2.136,3.113
0.306,-0.181,0.867,1.160,1.953,2.930
0.506,-0.219,0.848,1.160,1.526,3.296
0.336,-0.191,0.889,1.282,0.854,2.869
0.468,-0.207,0.839,1.160,0.977,2.808
0.388,-0.210,0.899,1.160,0.977,1.953
0.405,-0.195,0.837,1.099,0.793,1.282
0.447,-0.219,0.894,1.038,0.916,0.549
0.345,-0.177,0.848,1.282,0.610,0.305
0.489,-0.221,0.881,1.648,0.366,0.183
0.303,-0.177,0.864,1.953,0.000,0.366
0.498,-0.225,0.860,2.319,0.488,0.732
0.305,-0.190,0.879,2.258,0.793,0.793
0.475,-0.218,0.838,1.831,0.916,1.404
0.343,-0.202,0.890,1.343,0.977,1.526
0.422,-0.197,0.832,0.854,1.038,2.136
0.402,-0.209,0.897,0.610,0.977,2.502
0.356,-0.179,0.843,0.854,1.343,2.747
0.459,-0.216,0.891,1.404,1.953,2.686
0.316,-0.175,0.854,2.136,1.953,2.747
0.502,-0.224,0.866,2.747,1.770,2.808
0.306,-0.184,0.866,2.502,1.343,2.380
0.500,-0.225,0.842,2.197,1.526,2.380
0.331,-0.200,0.882,1.770,1.038,1.709
0.460,-0.212,0.834,1.160,0.793,1.770
0.381,-0.211,0.896,0.793,0.427,1.404
0.395,-0.191,0.836,0.671,0.183,1.465
0.435,-0.219,0.894,0.916,0.122,1.404
0.330,-0.182,0.848,1.282,0.366,1.343
0.479,-0.229,0.881,1.709,0.916,1.282
0.297,-0.184,0.863,1.770,1.221,1.160
0.495,-0.227,0.858,1.648,1.587,1.404
0.305,-0.191,0.880,1.343,1.770,1.526
0.478,-0.216,0.841,1.099,1.648,2.136
0.351,-0.204,0.895,1.099,1.404,2.136
0.431,-0.200,0.834,1.282,1.404,2.625
0.415,-0.214,0.895,1.343,1.160,2.625
0.365,-0.186,0.836,1.160,0.977,2.563
0.466,-0.225,0.884,1.038,1.282,2.075
0.318,-0.180,0.853,0.671,1.160,1.648
0.500,-0.222,0.869,0.916,1.343,1.221
0.303,-0.177,0.874,1.038,1.099,0.977
0.494,-0.215,0.851,1.404,1.221,1.343
0.325,-0.190,0.887,1.465,1.343,1.221
0.454,-0.203,0.835,1.404,1.465,1.587
0.376,-0.204,0.896,1.587,1.221,1.770
0.392,-0.189,0.836,1.587,1.343,2.136
0.438,-0.218,0.893,1.770,1.587,2.319
0.334,-0.180,0.844,2.014,1.343,2.380
0.488,-0.225,0.875,2.075,1.587,2.319
0.309,-0.181,0.859,2.197,1.221,2.197
0.506,-0.227,0.854,2.014,0.916,2.136
0.312,-0.193,0.877,1.465,0.732,1.953
0.481,-0.220,0.840,1.404,0.916,1.709
0.351,-0.207,0.894,1.160,0.977,1.282
0.428,-0.204,0.834,0.916,1.038,1.282
0.413,-0.218,0.896,0.854,0.916,1.099
0.367,-0.187,0.840,0.671,0.610,1.404
0.469,-0.225,0.889,0.977,0.854,1.648
0.319,-0.182,0.855,1.221,0.793,1.892
0.501,-0.229,0.869,1.526,1.099,2.075
0.302,-0.182,0.870,1.160,0.916,1.770
0.492,-0.217,0.850,1.099,1.160,1.709
0.320,-0.190,0.889,0.854,1.099,1.404
0.450,-0.203,0.837,0.977,1.282,1.526
0.376,-0.203,0.896,1.343,1.282,1.648
0.392,-0.187,0.833,1.709,1.099,2.014
0.439,-0.220,0.887,1.648,1.160,2.136
0.337,-0.182,0.837,1.648,0.977,2.136
0.487,-0.225,0.870,1.526,0.732,2.319
0.304,-0.179,0.857,1.221,0.671,2.197
0.501,-0.223,0.858,1.282,0.916,1.953
0.309,-0.185,0.884,1.221,0.793,1.404
0.478,-0.212,0.846,1.343,0.977,1.343
0.350,-0.202,0.898,1.709,1.160,1.221
0.427,-0.202,0.836,1.831,1.221,1.343
0.413,-0.221,0.895,1.770,1.282,1.282
0.365,-0.192,0.838,1.526,1.099,1.465
0.469,-0.231,0.885,1.343,1.099,1.465
0.306,-0.181,0.874,0.549,0.854,1.648
0.497,-0.217,0.853,0.793,0.671,2.075
0.327,-0.194,0.890,1.099,0.793,1.770
0.455,-0.206,0.837,1.282,0.977,1.831
0.380,-0.209,0.895,1.282,1.038,1.526
0.392,-0.190,0.833,1.160,1.038,1.404
0.438,-0.216,0.891,1.343,1.099,1.282
0.331,-0.178,0.844,1.160,0.977,1.404
0.484,-0.222,0.876,1.404,1.221,1.770
0.300,-0.177,0.862,1.587,0.671,2.075
0.499,-0.220,0.857,1.648,0.793,2.380
0.308,-0.185,0.879,1.709,0.793,2.258
0.477,-0.213,0.841,1.465,1.038,2.380
0.351,-0.202,0.892,1.587,1.099,1.953
0.424,-0.199,0.833,1.587,0.854,1.587
0.410,-0.214,0.896,1.587,0.977,1.160
0.361,-0.184,0.840,1.587,1.038,1.038
0.465,-0.223,0.887,1.831,0.977,0.977
0.310,-0.180,0.855,2.075,0.854,0.977
0.494,-0.230,0.868,2.380,1.282,1.160
0.297,-0.188,0.869,2.014,1.343,0.977
0.489,-0.227,0.846,1.770,1.587,1.404
0.322,-0.199,0.885,1.221,1.526,1.404
0.450,-0.211,0.835,0.732,1.648,1.831
0.380,-0.213,0.896,0.671,1.526,2.014
0.394,-0.195,0.837,0.671,1.343,2.686
0.443,-0.224,0.893,1.099,1.343,3.052
0.338,-0.185,0.846,1.038,1.282,3.296
0.493,-0.229,0.879,1.343,1.648,3.174
0.311,-0.182,0.862,1.404,1.282,2.747
0.507,-0.225,0.858,1.282,1.038,2.625
0.313,-0.189,0.881,1.282,0.977,1.770
0.479,-0.214,0.842,1.343,1.099,1.282
0.350,-0.200,0.895,1.343,1.099,0.610
0.423,-0.198,0.837,1.343,1.282,0.305
0.409,-0.214,0.897,1.526,1.587,0.122
0.361,-0.185,0.838,1.526,1.221,0.610
0.464,-0.226,0.882,1.648,1.099,0.977
0.313,-0.182,0.850,1.465,1.221,1.404
0.499,-0.229,0.865,1.343,1.587,1.831
0.303,-0.183,0.870,1.221,1.038,2.075
0.494,-0.220,0.848,1.160,1.160,2.319
0.326,-0.193,0.888,1.099,1.160,2.136
0.455,-0.206,0.836,1.099,1.221,2.075
0.377,-0.208,0.899,1.038,1.099,1.953
0.392,-0.194,0.837,1.099,1.099,1.892
0.438,-0.224,0.894,1.282,1.404,1.770
0.333,-0.187,0.844,1.343,1.465,1.404
0.488,-0.232,0.874,1.282,1.709,1.343
0.307,-0.184,0.858,1.038,1.343,1.404
0.502,-0.225,0.856,0.854,1.221,1.770
0.308,-0.186,0.880,0.671,1.038,1.831
0.476,-0.214,0.843,0.732,1.221,2.197
0.346,-0.202,0.895,1.099,0.977,2.136
0.425,-0.201,0.834,1.343,1.160,2.136
0.414,-0.215,0.895,1.282,1.282,1.587
0.368,-0.183,0.838,1.282,0.977,1.709
0.471,-0.220,0.887,1.343,1.099,1.770
0.317,-0.174,0.855,1.526,0.916,1.953
0.500,-0.222,0.872,1.770,1.160,2.197
0.304,-0.180,0.873,1.831,1.221,2.014
0.498,-0.219,0.850,2.014,1.221,2.136
0.329,-0.193,0.889,2.014,1.038,1.953
0.460,-0.206,0.836,1.953,1.160,1.953
0.379,-0.209,0.895,2.136,1.343,1.526
0.396,-0.197,0.833,2.075,1.343,1.709
0.442,-0.228,0.888,2.136,1.160,1.526
0.337,-0.191,0.840,2.014,0.732,1.587
0.485,-0.234,0.873,1.953,0.671,1.648
0.301,-0.188,0.860,1.526,0.610,1.465
0.497,-0.231,0.860,1.465,0.916,1.709
0.303,-0.192,0.883,1.282,1.099,1.831
0.473,-0.218,0.845,1.221,1.465,2.075
0.346,-0.203,0.894,1.343,1.587,1.953
0.424,-0.200,0.833,1.221,1.465,2.319
0.407,-0.217,0.894,1.221,1.343,2.258
0.363,-0.187,0.836,1.038,1.404,2.319
0.467,-0.224,0.884,1.160,1.587,2.380
0.318,-0.177,0.850,1.221,1.221,2.258
0.502,-0.223,0.866,1.343,1.465,2.136
0.305,-0.180,0.869,1.343,0.977,1.648
0.496,-0.219,0.849,1.526,1.221,1.709
0.327,-0.195,0.888,1.648,1.099,1.099
0.458,-0.209,0.837,1.587,1.343,1.343
0.382,-0.211,0.896,1.770,1.343,0.854
0.402,-0.197,0.833,1.770,1.038,1.038
0.445,-0.226,0.890,1.404,0.732,1.221
0.341,-0.187,0.844,0.977,0.610,1.465
0.487,-0.230,0.881,0.977,0.916,1.709
0.301,-0.181,0.868,0.732,0.732,1.831
0.497,-0.224,0.866,0.854,1.282,1.953
0.306,-0.188,0.884,1.221,1.648,1.831
0.476,-0.216,0.842,1.587,1.770,2.197
0.349,-0.206,0.889,1.526,1.892,2.136
0.430,-0.205,0.828,1.343,1.709,2.380
0.410,-0.220,0.890,1.343,1.465,2.319
0.368,-0.193,0.834,1.038,1.221,2.380
0.470,-0.231,0.881,1.099,1.160,2.380
0.323,-0.185,0.849,0.854,0.610,2.258
0.503,-0.228,0.868,0.916,0.427,2.075
0.304,-0.181,0.874,0.854,0.305,1.648
0.495,-0.218,0.854,1.038,0.671,1.404
0.323,-0.193,0.892,1.404,0.793,0.671
0.456,-0.207,0.839,1.709,0.977,0.793
0.375,-0.209,0.895,1.953,0.977,0.488
0.393,-0.195,0.833,1.709,1.099,0.732
0.435,-0.223,0.889,1.648,1.404,0.916
0.337,-0.187,0.841,1.282,1.282,1.282
0.483,-0.229,0.875,1.160,1.465,1.770
0.302,-0.180,0.859,0.854,1.282,2.197
0.501,-0.223,0.859,0.732,1.526,2.869
0.311,-0.185,0.879,0.793,1.282,2.991
0.480,-0.211,0.842,1.160,0.916,3.296
0.349,-0.198,0.895,1.221,0.977,3.174
0.434,-0.200,0.834,1.221,1.343,3.052
0.416,-0.218,0.895,1.587,1.343,2.563
0.375,-0.191,0.838,1.465,0.977,2.075
0.473,-0.228,0.886,1.648,1.282,1.282
0.323,-0.185,0.852,1.404,0.977,0.671
0.500,-0.232,0.870,1.404,0.916,0.366
0.320,-0.195,0.888,1.465,0.427,0.854
0.451,-0.211,0.836,1.404,0.610,1.648
0.370,-0.213,0.895,1.343,0.793,1.892
0.393,-0.196,0.833,1.160,0.854,2.441
0.436,-0.221,0.892,1.038,1.038,2.441
0.341,-0.181,0.842,0.916,0.671,2.747
0.485,-0.225,0.877,1.160,0.671,2.869
0.303,-0.181,0.860,1.099,0.732,2.441
0.500,-0.225,0.860,1.282,1.160,2.075
0.307,-0.187,0.882,1.282,1.282,1.465
0.480,-0.215,0.842,1.648,1.343,1.343
0.345,-0.201,0.893,1.648,1.404,1.038
0.428,-0.203,0.834,1.526,1.404,1.465
0.406,-0.220,0.895,1.465,1.221,1.404
0.367,-0.193,0.836,1.160,0.916,1.831
0.464,-0.232,0.885,1.099,0.916,1.831
0.320,-0.188,0.851,0.916,0.977,1.953
0.501,-0.235,0.867,0.732,1.221,2.014
0.303,-0.189,0.869,0.671,0.977,1.770
0.498,-0.226,0.847,0.610,1.038,1.587
0.324,-0.196,0.885,0.488,0.732,1.282
0.456,-0.207,0.837,0.244,0.671,1.343
0.371,-0.205,0.898,0.305,0.793,1.221
0.396,-0.190,0.838,0.793,0.977,1.648
0.432,-0.217,0.897,1.282,1.282,1.831
0.336,-0.179,0.845,1.343,1.282,2.136
0.481,-0.224,0.878,1.648,1.587,2.441
0.302,-0.177,0.858,1.404,1.038,2.625
0.498,-0.221,0.859,1.221,1.282,2.869
0.306,-0.181,0.878,1.099,1.404,2.441
0.483,-0.208,0.843,1.221,1.526,2.747
0.347,-0.192,0.892,1.709,1.282,2.563
0.432,-0.195,0.833,2.075,1.343,2.441
0.409,-0.214,0.895,2.441,1.465,2.197
0.373,-0.190,0.837,2.502,1.282,1.770
0.469,-0.231,0.885,2.441,1.465,1.282
0.327,-0.189,0.849,2.136,1.282,1.160
0.506,-0.236,0.868,1.831,1.343,1.221
0.307,-0.188,0.872,1.282,0.854,1.099
0.500,-0.224,0.855,1.221,0.916,1.526
0.320,-0.196,0.891,1.343,0.854,1.709
0.458,-0.214,0.840,1.221,0.977,2.258
0.371,-0.214,0.896,1.343,1.099,2.319
0.398,-0.200,0.833,0.977,1.038,2.625
0.434,-0.223,0.890,0.793,1.221,2.563
0.341,-0.184,0.840,0.610,1.038,2.502
0.485,-0.225,0.875,0.793,1.099,2.441
0.307,-0.175,0.856,0.977,0.610,2.441
0.500,-0.219,0.858,1.221,0.549,2.380
0.305,-0.182,0.876,1.343,0.488,1.831
0.479,-0.213,0.843,1.892,0.732,1.526
0.340,-0.200,0.892,1.953,0.793,0.977
0.427,-0.201,0.834,1.709,0.977,0.671
0.399,-0.214,0.896,1.709,1.343,0.244
0.368,-0.188,0.838,1.587,1.526,0.488
0.458,-0.226,0.888,1.892,1.465,0.916
0.318,-0.184,0.851,1.709,1.648,1.526
0.497,-0.231,0.870,1.709,1.892,2.136
0.302,-0.186,0.870,1.282,1.404,2.625
0.498,-0.225,0.852,1.160,1.526,3.296
0.329,-0.195,0.886,0.916,1.770,3.357
0.472,-0.210,0.836,1.038,1.343,3.601
0.384,-0.207,0.894,0.916,0.610,3.418
0.414,-0.195,0.834,0.732,0.427,3.113
0.443,-0.220,0.897,0.854,0.549,2.441
0.350,-0.182,0.849,1.160,0.549,1.709
0.486,-0.225,0.886,1.526,0.793,0.977
0.308,-0.180,0.864,1.709,0.793,0.366
0.502,-0.226,0.863,2.014,0.854,0.061
0.307,-0.189,0.877,1.892,0.732,-0.122
0.483,-0.218,0.840,2.014,0.793,0.305
0.340,-0.203,0.887,1.892,0.549,0.732
0.428,-0.205,0.828,1.648,0.488,1.465
0.395,-0.218,0.892,1.282,0.305,1.892
0.362,-0.190,0.836,1.038,0.305,2.197
0.450,-0.225,0.888,0.977,0.671,2.502
0.311,-0.180,0.853,0.916,0.854,2.686
0.490,-0.225,0.872,1.221,1.343,2.808
0.300,-0.181,0.868,1.282,1.404,2.686
0.498,-0.223,0.849,1.526,1.343,2.808
0.323,-0.196,0.883,1.648,1.038,2.380
0.464,-0.215,0.834,1.587,1.221,2.075
0.371,-0.213,0.893,1.343,1.038,1.282
0.403,-0.199,0.834,1.160,0.977,0.793
0.432,-0.224,0.896,1.038,1.160,0.549
0.342,-0.187,0.845,1.038,0.977,0.793
0.482,-0.231,0.882,1.343,1.099,1.099
0.308,-0.187,0.859,1.465,0.916,1.587
0.502,-0.232,0.861,1.404,0.977,2.075
0.307,-0.192,0.878,1.038,0.793,2.197
0.485,-0.221,0.845,0.854,1.160,2.625
0.343,-0.202,0.893,0.854,1.221,2.441
0.437,-0.200,0.835,0.549,1.038,2.441
0.402,-0.209,0.899,0.610,0.916,2.380
0.372,-0.183,0.840,0.671,0.977,2.441
0.459,-0.220,0.891,1.282,1.221,2.136
0.321,-0.178,0.851,1.587,1.282,1.892
0.498,-0.226,0.869,1.709,1.282,1.648
0.301,-0.181,0.868,1.770,0.916,1.404
0.499,-0.221,0.849,1.709,1.099,1.282
0.318,-0.192,0.885,1.648,0.854,0.916
0.457,-0.208,0.838,1.709,0.854,1.160
0.362,-0.208,0.897,1.709,1.038,0.916
0.394,-0.198,0.836,1.709,1.282,1.160
0.422,-0.225,0.893,2.014,1.587,1.160
0.337,-0.191,0.840,1.892,1.587,1.587
0.476,-0.233,0.875,1.770,1.770,1.892
0.302,-0.186,0.855,1.221,1.648,2.319
0.499,-0.230,0.859,0.854,1.831,2.563
0.306,-0.191,0.880,0.610,1.404,2.686
0.486,-0.220,0.848,0.732,1.404,3.113
0.343,-0.202,0.896,0.916,1.343,3.113
0.441,-0.207,0.834,1.038,1.404,3.296
0.409,-0.219,0.896,1.160,1.221,2.991
0.380,-0.192,0.836,1.038,1.038,2.808
0.468,-0.226,0.888,1.038,1.221,2.136
0.327,-0.182,0.852,1.099,1.099,1.404
0.500,-0.226,0.876,1.343,1.282,0.977
0.303,-0.178,0.875,1.343,1.099,0.305
0.500,-0.217,0.855,1.526,1.343,0.305
0.365,-0.204,0.897,1.892,1.526,1.343
0.403,-0.194,0.833,1.953,1.526,1.892
0.430,-0.219,0.891,1.892,1.221,2.319
0.342,-0.182,0.839,1.831,1.038,2.686
0.479,-0.227,0.878,1.770,1.465,2.808
0.304,-0.182,0.857,1.770,1.343,2.502
0.503,-0.229,0.862,2.014,1.343,2.625
0.309,-0.190,0.877,2.136,1.404,2.319
0.487,-0.221,0.841,2.319,1.221,2.319
0.348,-0.206,0.889,2.136,1.221,1.770
