aX,aY,aZ,gX,gY,gZ
0.030,-0.041,0.912,2.014,-0.122,5.676
0.068,-0.031,0.975,2.747,0.427,6.836
-0.145,-0.030,0.842,2.563,0.366,7.874
-0.034,-0.038,1.014,2.563,2.625,8.972
-0.027,-0.014,0.884,1.648,0.305,8.484
-0.033,0.035,0.932,1.160,1.282,8.484
-0.105,-0.000,0.907,0.366,1.404,7.385
0.049,-0.070,1.123,-0.122,2.991,7.874
-0.007,-0.023,0.978,-0.061,2.075,7.385
0.145,-0.014,0.841,0.000,2.808,6.226
0.039,-0.126,1.087,0.549,2.136,6.042
0.028,-0.042,0.851,1.892,2.808,7.141
0.080,-0.011,0.908,3.235,2.747,8.362
0.208,-0.093,1.094,3.174,1.038,7.141
-0.061,-0.043,1.044,2.808,0.183,6.958
0.071,-0.063,1.073,2.808,1.465,6.836
0.171,-0.079,1.052,2.014,-0.427,7.263
0.063,-0.081,1.026,1.953,-0.549,7.019
-0.075,-0.013,0.913,0.610,-0.854,6.226
0.032,-0.074,1.173,0.122,-0.183,6.226
0.027,-0.022,0.908,-0.305,-1.038,7.202
0.075,-0.066,1.056,0.305,0.549,7.263
-0.044,-0.076,1.009,-0.061,0.122,6.592
0.002,-0.011,0.907,0.244,0.488,5.432
-0.002,0.012,0.796,1.221,2.136,5.188
-0.068,0.031,0.958,2.197,1.648,5.493
0.092,-0.064,1.240,3.296,3.235,6.348
0.095,-0.097,0.986,3.662,1.709,7.324
0.108,-0.059,1.109,4.700,2.869,8.301
0.009,-0.137,1.048,4.028,2.258,7.202
-0.007,-0.001,0.967,3.357,2.197,6.958
0.108,0.011,0.813,3.174,2.380,6.470
0.101,-0.013,0.970,2.380,1.343,6.226
-0.090,-0.095,1.202,2.136,0.977,6.897
0.079,-0.058,0.950,1.099,0.244,6.653
0.194,-0.043,1.025,1.404,0.183,6.958
-0.022,-0.077,1.024,0.854,0.183,6.592
-0.190,-0.022,0.930,0.671,0.427,6.592
0.064,-0.024,0.860,1.160,1.770,6.104
0.146,0.005,0.949,0.916,0.549,6.104
-0.052,-0.111,1.267,1.831,1.221,6.836
-0.029,-0.113,1.004,1.343,1.221,6.714
0.052,-0.016,0.873,2.014,1.404,7.141
0.035,-0.013,0.791,2.258,2.197,6.836
-0.141,-0.012,0.953,2.075,1.038,6.653
0.178,-0.120,1.146,2.319,2.441,6.470
0.036,-0.062,1.065,2.197,0.549,6.714
0.092,-0.030,0.869,2.502,2.075,5.859
0.055,-0.123,1.080,2.808,2.197,5.737
-0.023,0.005,0.801,2.319,0.549,6.592
0.068,0.029,0.761,3.296,2.197,7.568
0.052,-0.013,1.040,2.747,0.549,7.935
0.104,-0.150,1.241,2.441,1.343,8.179
0.081,-0.087,1.016,1.770,0.854,8.728
0.008,-0.001,0.807,1.465,-0.061,9.521
-0.034,-0.004,0.835,1.221,0.793,9.460
0.039,-0.050,0.994,0.549,0.549,9.338
0.101,-0.072,1.192,0.000,1.099,8.606
0.213,-0.109,1.204,0.061,1.343,7.874
-0.030,-0.110,1.045,-0.183,0.061,7.935
-0.026,-0.051,0.921,1.343,2.625,8.911
-0.042,0.060,0.703,1.709,1.099,9.705
0.068,0.009,0.991,2.014,0.977,8.972
0.192,-0.079,1.119,2.136,1.892,8.728
0.064,-0.092,1.150,1.831,0.916,9.033
0.119,-0.127,1.155,2.563,2.319,7.996
-0.011,-0.001,0.655,2.014,0.610,8.057
0.095,-0.034,0.910,3.296,2.686,8.789
-0.141,0.040,0.744,2.686,0.122,9.277
0.102,-0.020,1.046,2.869,1.526,8.606
0.226,-0.094,1.204,2.197,0.427,8.850
0.027,-0.149,1.185,1.831,0.793,9.216
-0.132,-0.053,0.923,2.258,1.404,9.094
-0.100,0.028,0.667,1.709,1.465,8.728
0.003,-0.004,0.874,1.587,1.282,8.240
0.060,0.000,0.904,1.343,1.892,8.545
-0.041,-0.046,1.062,0.916,-0.061,9.033
0.051,-0.031,1.046,1.343,2.319,8.728
0.140,-0.151,1.193,0.854,1.770,8.667
-0.069,-0.015,0.932,1.221,1.404,8.728
0.011,0.054,0.712,1.526,1.526,7.812
0.050,0.002,0.977,1.282,0.244,7.263
0.113,-0.043,1.106,1.404,2.380,7.080
0.021,-0.079,1.174,1.160,0.671,7.629
0.178,-0.113,1.100,2.075,2.075,7.080
0.056,-0.132,1.149,2.197,1.038,7.324
-0.115,-0.005,0.768,3.174,1.282,7.874
0.016,0.005,0.816,3.784,1.343,7.874
0.057,-0.026,1.103,3.479,0.061,7.751
0.198,-0.077,1.214,3.723,2.563,7.629
0.030,-0.115,1.116,2.808,0.183,7.996
-0.010,-0.121,1.024,3.418,2.563,7.202
0.023,-0.073,0.919,2.747,1.526,7.324
-0.039,-0.016,0.738,2.808,1.343,8.057
0.027,-0.010,0.833,2.563,1.404,8.301
0.026,0.002,0.851,2.136,1.038,8.911
0.020,0.019,0.907,1.465,1.099,8.606
0.073,-0.079,1.302,1.160,1.709,7.812
0.150,-0.126,1.099,-0.061,0.732,6.836
0.118,-0.100,1.098,0.427,1.648,7.080
-0.042,-0.047,0.897,0.977,1.648,7.080
-0.067,0.013,0.689,1.160,0.732,7.019
0.113,-0.026,0.895,2.258,1.953,7.324
0.170,-0.099,1.168,2.747,0.793,7.935
0.065,-0.113,1.123,2.930,1.404,8.484
-0.041,-0.041,0.865,3.601,1.282,8.301
-0.014,0.011,0.745,3.113,1.038,7.935
0.086,-0.006,0.880,3.601,2.136,7.385
-0.028,-0.010,0.843,2.991,1.038,6.653
0.099,-0.079,1.119,2.930,1.831,6.653
0.179,-0.056,1.010,2.625,0.793,6.775
0.159,-0.089,1.258,2.808,0.977,7.202
-0.050,-0.118,1.030,1.953,1.160,6.897
-0.130,0.021,0.738,1.709,2.136,6.836
0.036,-0.012,0.775,2.197,3.113,6.165
0.187,-0.059,1.073,1.709,0.854,6.165
0.221,-0.128,1.324,1.709,1.282,6.714
-0.037,-0.067,0.972,1.892,0.305,7.080
-0.137,0.030,0.671,1.770,0.854,7.141
0.056,0.004,0.839,2.075,2.563,6.714
0.200,-0.148,1.256,1.587,0.977,6.165
-0.002,-0.049,0.904,2.441,0.732,6.226
0.026,-0.038,0.882,2.686,0.610,6.897
0.015,-0.016,0.841,2.625,0.793,7.141
0.031,-0.029,0.882,2.197,1.892,6.958
0.135,-0.108,1.161,1.892,1.099,6.775
0.126,-0.128,1.164,2.502,2.014,6.348
0.012,-0.036,0.802,1.831,0.916,6.165
0.033,-0.050,0.916,2.380,1.160,6.226
0.085,-0.005,0.817,2.014,1.221,6.836
0.072,-0.011,1.025,1.465,0.183,7.080
0.086,-0.102,1.166,1.404,2.563,6.714
0.050,-0.104,1.009,0.732,0.610,6.287
0.027,-0.028,0.969,1.465,1.587,6.409
0.056,-0.082,1.035,1.343,0.732,6.836
0.017,-0.084,1.037,1.282,0.549,7.080
-0.067,0.012,0.678,1.282,1.953,7.263
0.114,-0.018,0.934,1.953,2.502,6.836
0.146,-0.070,1.182,1.892,-0.244,6.226
-0.026,-0.100,1.065,2.075,0.854,5.493
-0.011,-0.062,0.896,2.441,2.258,5.005
0.025,-0.022,0.742,2.563,1.404,5.066
0.032,-0.023,0.969,2.747,1.038,4.944
0.085,-0.094,1.151,2.563,0.671,5.066
-0.039,-0.070,1.005,1.770,0.122,5.188
0.097,-0.085,1.111,1.770,2.747,5.188
-0.074,-0.067,0.932,0.610,0.122,4.944
-0.045,-0.026,0.842,0.610,2.075,5.127
0.013,-0.039,0.856,0.671,1.465,5.127
0.072,-0.028,0.948,0.549,1.160,5.066
0.068,-0.012,1.043,0.732,0.916,4.883
0.052,-0.072,0.975,0.793,1.587,4.517
-0.026,-0.076,1.131,1.343,1.404,4.211
0.014,-0.084,0.985,1.343,1.892,3.540
0.015,-0.053,0.943,2.197,1.038,3.479
-0.022,0.009,0.707,2.930,1.526,3.601
0.114,-0.033,0.996,3.479,1.465,3.540
0.037,-0.014,0.933,3.296,1.526,3.723
0.085,-0.097,1.068,2.747,1.892,3.662
0.116,-0.103,1.119,2.441,1.709,3.540
-0.034,-0.056,0.791,1.770,0.977,3.479
0.037,-0.033,0.888,1.709,1.892,3.418
0.042,-0.027,0.889,1.221,1.587,3.601
0.095,-0.084,1.119,0.488,0.549,3.479
0.146,-0.105,1.130,0.671,1.282,3.601
-0.037,-0.113,1.062,0.305,-0.671,3.052
-0.048,-0.037,0.806,1.099,3.174,2.625
0.024,-0.040,0.798,0.793,0.061,2.502
0.050,-0.024,0.925,1.038,1.038,2.197
0.052,-0.036,1.008,1.221,0.977,2.319
0.035,-0.054,1.011,0.916,0.916,2.380
0.054,-0.079,1.131,0.977,0.977,2.136
-0.139,-0.022,0.807,0.977,1.038,2.258
0.007,-0.024,0.923,2.441,2.808,2.258
0.022,-0.007,0.816,3.296,1.404,2.380
0.034,-0.029,0.949,4.456,1.587,2.686
0.102,-0.109,1.167,5.310,1.404,2.686
-0.008,-0.116,1.102,5.432,0.854,2.258
-0.020,-0.108,1.075,4.822,3.296,1.770
-0.022,-0.088,0.976,2.991,0.854,1.221
0.000,-0.041,0.848,1.892,1.831,0.854
0.091,-0.059,0.883,0.610,0.977,0.549
0.046,-0.047,0.953,-1.038,0.488,0.366
0.147,-0.129,1.202,-1.648,1.282,0.183
-0.082,-0.083,1.041,-2.808,0.183,0.061
-0.046,-0.042,0.993,-2.747,2.563,-0.061
-0.018,-0.023,0.858,-2.502,-0.427,-0.671
0.058,-0.067,1.009,-1.343,0.610,-1.282
0.027,-0.024,0.879,-0.244,0.427,-1.343
-0.029,-0.036,0.866,1.526,1.648,-1.404
0.115,-0.059,1.054,2.991,1.831,-1.343
0.040,-0.077,1.034,3.906,0.916,-1.343
0.002,-0.047,0.943,4.944,1.831,-1.526
0.030,-0.026,0.845,5.188,1.404,-1.404
0.122,-0.035,1.012,5.127,1.953,-1.465
0.055,-0.027,0.975,4.333,1.038,-1.465
0.071,-0.095,1.092,3.418,1.404,-1.526
0.036,-0.100,1.031,2.502,0.488,-1.587
-0.088,-0.062,0.855,1.282,0.610,-1.770
0.111,-0.050,0.958,0.610,2.808,-1.892
0.098,-0.047,0.823,-0.366,0.977,-2.258
0.062,-0.063,0.902,-0.488,0.732,-2.563
0.059,-0.009,0.761,0.000,1.282,-3.052
0.121,-0.075,1.131,0.305,1.648,-3.357
0.016,-0.080,1.010,0.366,1.160,-3.601
-0.092,-0.158,1.255,1.221,2.563,-3.906
0.119,0.005,0.728,1.709,5.493,-4.211
-0.014,0.049,0.556,2.869,-2.014,-4.761
0.086,-0.031,0.985,2.747,0.732,-5.005
0.084,-0.077,1.020,1.770,-0.305,-5.066
-0.090,-0.095,1.227,0.549,0.610,-4.944
0.134,-0.076,1.107,0.183,4.089,-4.700
-0.119,0.025,0.576,-0.244,-2.930,-4.822
0.178,-0.068,1.079,1.343,4.700,-4.578
0.001,-0.015,0.889,1.099,-0.916,-4.700
-0.026,-0.047,0.913,1.953,1.892,-4.639
0.092,-0.082,1.035,2.380,1.221,-4.639
0.055,-0.128,1.223,2.258,0.854,-4.639
-0.037,-0.115,1.103,2.441,3.784,-4.456
0.040,0.037,0.571,2.014,1.160,-4.395
0.076,-0.030,0.905,3.113,2.563,-4.456
0.088,-0.055,1.025,1.343,2.197,-4.456
0.042,-0.089,1.025,1.709,-3.113,-4.639
0.002,-0.091,1.050,0.549,1.831,-4.333
0.037,-0.035,0.853,-0.854,0.305,-4.333
0.087,-0.022,0.835,-1.038,2.441,-4.089
0.044,-0.035,0.912,-0.732,1.099,-4.150
0.006,-0.113,1.169,-0.061,1.099,-4.028
0.016,-0.085,1.018,1.404,2.258,-3.906
0.070,-0.025,0.836,2.625,0.000,-3.967
0.071,-0.029,0.905,3.540,1.770,-3.845
-0.006,-0.103,1.081,3.540,1.160,-3.662
0.027,-0.089,1.034,3.052,-0.122,-3.601
0.062,-0.057,0.904,1.892,2.136,-3.601
0.054,-0.047,0.817,0.671,1.282,-3.357
0.053,-0.057,1.069,0.000,1.282,-3.052
0.031,-0.089,1.156,-0.671,1.709,-2.686
0.074,-0.126,1.215,0.122,-0.183,-2.686
0.006,-0.055,0.911,0.061,3.235,-2.075
0.087,-0.029,0.786,2.319,3.418,-1.892
0.060,-0.113,1.190,2.380,3.784,-1.648
0.037,-0.137,1.165,2.136,0.793,-1.648
0.032,-0.013,0.748,2.258,0.977,-1.404
0.088,-0.035,0.920,1.282,5.249,-1.099
0.043,-0.039,0.824,1.648,1.099,-1.099
0.024,-0.084,1.075,2.563,-1.343,-1.221
0.034,-0.137,1.213,1.770,0.488,-1.038
0.036,-0.090,0.989,2.197,1.160,-0.793
0.017,-0.019,0.723,1.221,2.563,-0.549
0.038,-0.069,0.944,2.014,2.808,-0.610
0.045,-0.042,0.889,1.587,2.808,-0.671
0.040,-0.092,1.017,2.136,2.380,-0.488
0.059,-0.111,1.096,2.686,1.465,-0.061
0.037,-0.066,0.906,3.357,2.625,0.549
0.046,-0.042,0.860,4.456,4.089,1.160
0.048,-0.037,0.888,5.249,5.615,1.953
0.058,-0.069,1.005,6.470,6.592,2.747
0.036,-0.055,0.987,8.423,6.775,3.296
0.029,-0.060,0.939,10.315,7.202,3.662
0.017,-0.072,0.925,12.634,7.874,3.662
0.033,-0.082,1.025,13.855,9.949,3.540
0.021,-0.043,0.927,15.259,12.817,3.113
0.019,-0.041,0.874,17.517,15.137,1.099
0.015,-0.063,0.901,17.456,15.869,-1.831
0.017,-0.074,0.875,13.794,15.259,-4.150
0.101,-0.185,1.287,7.935,13.367,-5.127
0.123,-0.169,1.200,1.709,7.446,-5.554
0.107,-0.143,1.078,-3.967,-0.183,-5.371
0.097,-0.103,0.890,-7.141,-8.301,-5.066
0.102,-0.137,0.962,-10.986,-12.878,-4.089
0.050,-0.087,0.842,-13.367,-13.794,-2.747
0.046,-0.113,0.890,-14.771,-12.634,-1.404
0.048,-0.113,1.158,-16.724,-9.277,-0.244
0.094,-0.132,1.038,-17.212,-7.446,0.061
0.080,-0.096,0.831,-17.151,-8.972,-0.366
0.035,-0.080,0.962,-15.808,-14.709,-1.709
-0.066,-0.086,0.918,-16.357,-12.939,-2.686
0.067,-0.060,0.959,-16.724,-0.793,-2.747
0.031,-0.031,0.922,-12.573,0.061,-2.686
-0.035,-0.042,0.831,-6.958,0.488,-2.930
-0.004,-0.038,0.826,-2.197,1.099,-3.723
-0.008,-0.051,0.925,1.099,0.793,-4.395
0.075,-0.045,1.096,2.319,1.282,-4.517
-0.004,-0.054,0.915,2.258,0.732,-4.333
0.073,-0.025,1.054,1.465,2.136,-4.028
0.064,-0.046,1.022,0.610,0.793,-3.479
0.018,-0.039,0.972,0.000,2.075,-3.052
-0.004,-0.042,0.912,-0.427,1.038,-2.930
0.016,-0.066,0.805,-0.305,1.526,-3.235
0.067,-0.045,1.049,0.122,0.977,-3.845
0.078,-0.056,1.004,0.793,0.854,-4.395
0.050,-0.059,0.993,1.221,0.854,-4.761
0.007,-0.052,0.906,1.648,0.977,-4.761
0.082,-0.055,0.923,1.526,0.305,-4.456
0.034,-0.054,0.936,1.221,0.854,-3.540
0.063,-0.046,0.923,1.038,0.916,-2.625
0.058,-0.050,0.954,0.977,0.916,-1.892
0.131,-0.064,1.054,1.221,1.038,-1.587
0.047,-0.055,1.105,1.160,1.221,-1.404
-0.003,-0.089,0.974,1.221,1.648,-1.282
-0.033,-0.107,0.790,0.427,0.977,-1.160
0.065,-0.111,1.063,-1.038,1.770,-1.160
0.071,-0.128,0.994,-2.625,0.305,-1.160
0.051,-0.115,0.993,-3.601,1.343,-1.282
0.015,-0.105,0.877,-3.357,1.038,-1.343
0.055,-0.109,0.861,-1.526,0.610,-1.343
0.052,-0.097,0.917,1.526,1.038,-1.465
0.113,-0.061,1.049,4.761,1.282,-1.404
0.062,-0.062,0.935,7.751,0.854,-1.343
0.010,-0.039,0.892,9.399,0.732,-1.282
-0.019,-0.027,0.932,8.301,0.610,-0.977
0.096,-0.044,1.123,5.249,0.916,-0.244
0.085,-0.018,1.159,1.404,0.427,0.305
0.047,0.001,0.992,-1.587,1.587,0.183
0.016,0.006,1.049,-4.150,1.038,-0.549
-0.092,0.005,0.873,-5.920,0.549,-1.526
-0.025,-0.018,0.884,-6.897,0.916,-2.930
0.110,-0.029,1.050,-7.568,0.366,-4.578
-0.007,-0.044,1.002,-7.996,0.671,-6.042
-0.022,-0.076,0.909,-8.850,0.732,-7.568
-0.004,-0.073,0.901,-9.521,1.343,-8.667
0.045,-0.088,0.878,-9.705,0.854,-9.277
0.099,-0.080,1.134,-8.972,0.793,-9.277
0.039,-0.041,0.870,-6.897,0.488,-8.362
0.063,-0.025,0.846,-3.723,1.160,-6.897
0.062,-0.046,0.874,-0.122,1.404,-5.188
0.116,-0.035,0.938,2.441,0.671,-3.479
0.109,-0.018,1.045,3.662,1.404,-1.770
0.029,-0.034,0.877,3.418,1.099,-0.610
0.096,-0.006,0.916,2.563,1.404,-0.122
0.057,-0.017,1.004,1.160,-0.061,-0.183
-0.042,-0.033,0.833,-0.366,0.305,-0.427
0.167,-0.043,0.979,-1.709,1.526,-0.854
0.063,-0.061,1.298,-3.052,-0.305,-1.526
-0.058,-0.066,0.923,-3.662,1.038,-1.892
-0.038,-0.046,0.634,-4.211,0.671,-2.258
0.039,-0.053,0.830,-4.089,1.648,-2.441
0.177,-0.072,1.031,-4.333,-0.427,-2.258
0.094,-0.053,1.256,-3.540,0.061,-1.953
-0.017,-0.058,0.923,-1.526,1.404,-1.282
0.021,-0.046,0.656,0.793,1.038,-0.427
0.077,-0.041,0.985,2.991,2.502,0.183
-0.013,-0.067,1.003,2.625,0.000,0.977
0.095,-0.025,1.006,1.221,1.770,1.465
0.065,-0.008,1.093,-0.610,0.488,1.465
-0.001,0.003,0.906,-1.709,0.000,1.282
0.015,0.008,0.836,-1.160,1.038,1.587
-0.016,-0.004,0.927,0.916,0.549,1.648
0.121,-0.003,1.134,2.502,1.221,1.648
0.035,0.006,1.016,1.709,0.000,1.953
-0.013,0.017,0.866,0.122,0.122,2.258
-0.017,-0.020,0.960,0.183,0.793,2.197
0.054,-0.022,1.083,0.854,0.549,1.953
0.000,-0.014,0.995,1.587,0.854,1.404
-0.027,-0.017,0.781,0.549,1.099,0.427
0.050,0.004,0.914,-0.183,0.854,-0.488
0.083,-0.017,1.088,0.854,1.221,-1.160
-0.029,-0.039,1.000,1.099,0.854,-1.587
0.025,0.009,0.986,1.282,1.953,-1.221
0.064,-0.008,0.860,1.160,1.282,-0.671
0.064,-0.048,1.127,1.770,1.160,0.732
-0.004,-0.077,1.057,1.953,1.038,0.793
0.014,-0.005,0.811,1.404,0.916,0.549
0.037,-0.021,0.862,1.282,1.160,0.488
0.125,-0.057,1.012,1.404,0.610,0.366
0.023,-0.050,1.042,1.587,1.038,0.793
0.028,-0.059,0.922,1.587,1.221,1.343
0.008,-0.064,0.994,1.160,1.282,1.404
0.080,-0.028,0.966,0.854,1.282,1.526
0.008,-0.085,0.983,0.671,1.038,1.465
0.015,-0.025,1.019,1.038,1.038,0.793
0.004,0.002,0.755,0.793,1.648,0.610
0.057,-0.009,0.832,0.916,1.648,0.916
0.113,-0.036,1.109,1.465,0.977,1.038
0.124,-0.070,1.208,0.671,0.916,1.770
-0.012,-0.097,1.082,0.732,1.099,1.770
-0.037,-0.003,0.695,0.793,0.793,1.709
0.091,-0.013,0.882,0.671,1.648,1.160
0.101,-0.049,0.974,0.244,0.366,0.793
-0.018,-0.025,1.078,0.244,0.793,0.854
0.017,-0.042,0.893,0.854,1.709,1.221
0.016,-0.015,0.848,1.404,0.732,1.343
0.108,-0.043,1.022,1.587,1.770,1.221
0.026,-0.053,0.962,0.793,1.526,0.793
0.016,-0.015,0.859,1.099,1.648,0.977
0.068,0.003,0.898,1.404,1.038,1.099
-0.028,-0.017,0.800,1.465,0.488,1.404
0.186,-0.034,0.970,1.587,1.953,1.221
0.089,-0.080,1.277,0.793,0.488,1.221
0.024,-0.089,1.019,1.160,1.221,1.282
0.015,-0.005,0.855,1.892,0.610,0.854
0.007,-0.025,0.806,2.319,2.136,0.671
0.162,-0.026,1.028,0.732,0.732,1.404
-0.020,-0.037,1.098,-0.305,0.244,1.587
-0.009,-0.037,0.896,1.221,1.465,1.892
0.054,-0.016,0.879,2.563,1.587,1.953
0.024,-0.009,0.943,2.014,1.343,1.709
-0.034,-0.016,0.841,0.610,1.221,0.916
0.110,-0.024,1.050,0.916,1.343,0.732
0.023,-0.072,1.129,1.892,0.610,0.793
-0.017,-0.043,0.917,1.526,0.732,0.488
0.030,-0.004,0.832,0.610,1.099,0.366
0.033,-0.030,0.947,0.793,0.977,-0.305
0.047,-0.067,1.037,1.282,1.038,-0.732
-0.025,-0.056,1.026,1.282,0.854,-0.916
0.012,-0.070,0.957,0.854,1.404,-0.305
-0.025,-0.028,0.982,0.549,0.916,0.000
0.088,-0.082,1.062,0.000,1.587,-0.488
0.044,-0.042,1.022,0.610,0.671,-0.854
0.083,-0.111,0.966,0.427,1.709,-1.343
-0.009,0.003,0.941,0.916,0.671,-1.099
0.011,-0.002,0.785,0.427,1.404,-1.099
0.129,0.013,0.926,0.183,0.732,-0.671
0.159,-0.026,1.076,1.038,1.404,-0.305
-0.055,-0.063,1.009,0.854,0.366,0.488
0.099,-0.056,0.950,1.526,1.526,0.427
0.043,-0.070,0.965,1.709,0.793,0.183
-0.035,-0.027,0.908,1.770,1.038,0.793
0.061,-0.015,0.993,1.038,1.587,0.793
0.048,-0.072,1.121,1.099,0.610,1.587
-0.024,-0.085,1.001,2.075,0.854,1.526
-0.004,-0.006,0.838,1.770,0.977,1.282
0.067,-0.049,0.913,0.610,1.526,0.671
0.101,-0.042,0.922,0.488,0.793,0.610
-0.048,-0.017,0.910,1.343,0.793,0.854
0.021,-0.029,0.975,1.160,2.014,1.099
0.126,-0.063,1.095,-0.061,0.977,1.404
0.017,-0.080,1.156,0.916,1.343,1.648
-0.097,-0.000,0.771,1.099,0.671,1.465
0.092,0.014,0.875,1.038,2.014,0.916
0.042,-0.024,0.982,1.282,0.977,0.793
0.061,-0.060,1.101,1.587,0.732,1.831
0.003,-0.032,1.033,1.343,0.793,2.014
-0.000,0.002,0.824,1.160,1.160,2.808
0.055,0.011,0.830,1.770,1.404,3.540
0.094,-0.043,1.046,2.563,1.038,4.028
-0.011,-0.074,1.046,1.221,0.488,4.578
0.051,-0.049,0.953,0.916,1.221,4.639
0.025,-0.006,0.844,1.831,1.099,4.761
0.035,-0.035,0.896,1.648,1.465,4.333
0.103,-0.043,0.919,0.549,0.732,3.601
-0.029,-0.049,0.945,1.038,1.038,2.686
0.072,-0.043,0.892,1.099,1.709,2.258
0.056,-0.023,1.015,0.366,1.221,1.465
0.027,-0.036,0.980,0.427,0.488,1.526
-0.071,0.015,0.840,0.793,0.732,1.526
0.133,-0.000,0.918,0.610,1.953,1.221
0.086,-0.122,1.175,0.000,0.610,-0.183
-0.073,-0.035,1.008,1.587,1.282,0.366
-0.035,0.045,0.643,1.404,1.526,0.610
0.055,0.020,0.829,0.793,1.099,1.404
-0.076,0.005,1.075,0.977,0.488,2.747
0.034,-0.084,1.210,0.854,1.160,2.930
0.039,-0.064,0.985,1.587,1.343,2.625
0.011,-0.035,0.846,1.343,0.732,2.075
0.009,-0.028,0.932,0.793,1.282,1.526
0.020,-0.006,0.798,1.038,1.343,2.075
0.055,-0.001,1.020,1.953,1.038,2.991
0.170,-0.108,1.217,1.465,0.854,2.930
0.044,-0.059,1.008,0.122,1.099,2.319
0.016,-0.028,0.855,1.404,1.770,1.709
-0.058,-0.001,0.780,2.441,1.038,1.465
0.063,-0.029,1.116,1.099,0.488,1.465
0.029,-0.064,1.061,0.061,1.343,1.465
0.057,-0.036,0.865,1.587,1.160,2.441
0.011,-0.011,0.916,2.441,1.221,2.930
-0.011,-0.031,0.986,1.221,0.854,2.869
0.080,-0.044,1.002,-0.183,1.465,2.014
-0.034,0.009,0.974,1.099,1.160,1.526
0.047,-0.061,1.023,2.319,1.221,1.038
0.098,-0.017,0.890,1.587,0.977,1.465
-0.035,-0.015,0.868,0.671,1.404,1.892
0.035,-0.010,1.064,0.916,0.977,2.747
0.016,-0.057,1.075,0.671,0.427,2.319
-0.016,-0.058,1.044,1.465,1.709,2.319
-0.035,0.014,0.670,0.793,1.282,2.136
0.053,0.009,0.993,1.221,1.404,1.343
-0.027,-0.056,1.100,1.709,0.488,1.770
-0.012,-0.037,1.044,0.854,0.854,2.563
0.045,-0.070,1.125,0.061,0.671,2.441
0.001,-0.045,1.124,0.000,0.244,3.052
-0.034,-0.004,0.833,0.000,1.221,2.869
-0.013,0.015,0.762,1.526,1.282,2.625
0.135,-0.039,1.009,2.319,1.587,2.136
0.010,-0.089,1.051,0.732,1.038,1.343
0.035,-0.057,0.928,0.244,1.160,0.977
0.058,-0.072,0.999,1.404,1.343,1.465
0.069,-0.072,0.953,1.831,1.282,2.258
0.113,-0.057,0.967,0.732,1.038,2.319
-0.015,-0.009,0.902,0.366,0.671,2.319
-0.009,0.007,0.871,0.916,1.587,1.892
0.051,0.000,1.052,1.587,0.854,1.587
0.061,-0.085,1.158,1.526,0.916,2.075
0.006,-0.044,0.974,0.488,0.610,2.319
0.001,0.004,0.760,0.549,1.526,2.197
-0.004,-0.001,0.882,1.526,0.916,2.502
0.118,-0.060,1.065,1.282,1.038,2.258
0.033,-0.081,1.105,1.282,1.099,2.136
0.006,-0.081,0.910,1.221,1.404,1.526
0.017,-0.002,0.744,1.160,1.648,1.709
0.050,-0.019,0.898,1.587,1.465,1.892
0.199,-0.085,1.105,1.892,1.099,2.075
0.084,-0.080,1.101,0.000,0.793,2.258
-0.011,-0.072,0.936,0.061,0.977,2.441
-0.071,0.038,0.595,1.770,1.282,2.686
0.056,0.030,1.020,2.319,1.831,2.197
0.153,-0.065,1.117,0.183,0.122,1.892
0.067,-0.107,1.146,-0.183,0.977,1.648
-0.096,0.021,0.751,2.075,1.160,1.953
0.020,-0.005,0.898,2.258,0.916,2.197
0.098,-0.017,1.060,0.305,0.854,2.258
-0.026,-0.050,1.011,0.854,0.854,2.625
-0.018,-0.026,0.914,2.014,1.160,2.319
0.048,-0.020,0.897,1.526,1.648,1.526
-0.019,-0.036,0.987,1.282,1.465,1.648
0.120,-0.059,1.053,0.916,1.953,1.587
-0.071,0.002,0.994,1.221,0.488,1.831
0.041,-0.051,0.983,1.160,1.770,1.343
0.053,-0.015,0.959,1.343,1.038,1.831
-0.019,-0.016,0.880,0.793,1.282,2.136
0.084,-0.094,1.057,0.732,0.427,2.625
-0.011,-0.025,0.899,0.183,0.244,1.892
0.035,-0.032,0.825,1.099,2.014,1.282
0.030,0.003,0.962,1.221,0.854,1.587
0.068,-0.066,1.123,0.122,0.305,1.953
-0.096,-0.042,1.000,0.671,0.793,2.563
0.094,-0.064,0.977,1.221,1.648,2.625
0.041,-0.055,1.105,1.160,1.465,2.258
-0.064,0.005,0.722,0.305,1.160,0.916
0.073,0.024,0.826,1.648,1.770,0.305
0.099,-0.043,1.094,2.441,1.282,0.854
0.075,-0.088,1.063,0.916,0.549,1.892
-0.001,-0.034,0.964,0.854,1.099,2.686
-0.005,-0.005,0.848,1.404,1.221,3.113
0.079,-0.010,0.908,1.343,1.160,2.869
0.023,-0.058,1.078,1.709,0.854,2.502
0.051,-0.081,1.042,1.160,0.977,2.808
0.034,-0.076,0.987,0.916,0.977,2.808
-0.013,-0.038,0.856,1.221,0.732,2.258
-0.032,-0.005,0.825,1.282,1.465,1.892
0.176,-0.020,1.027,0.916,1.770,1.831
-0.031,-0.048,1.061,1.282,0.305,2.258
-0.005,0.001,0.867,0.610,1.648,2.075
0.032,0.033,0.886,0.244,1.465,1.465
-0.041,-0.050,1.079,1.892,1.038,1.770
0.005,-0.052,1.117,1.587,0.854,1.404
0.026,-0.067,1.133,0.427,0.854,0.854
-0.057,-0.004,0.753,0.488,0.854,0.610
0.001,0.025,0.731,2.563,1.526,0.610
-0.017,0.024,0.805,2.563,1.038,1.587
0.096,-0.063,1.147,0.061,0.793,1.160
0.092,-0.055,1.087,0.000,1.587,1.404
-0.084,-0.057,0.858,0.061,0.610,1.526
0.112,-0.051,0.998,0.671,1.343,1.770
0.059,-0.068,0.981,0.366,0.671,1.526
-0.023,-0.030,0.948,0.488,1.221,1.404
-0.048,0.040,0.702,0.366,1.343,0.061
-0.041,0.057,0.864,0.732,1.160,-0.366
0.139,-0.045,1.094,1.953,1.587,-0.488
0.095,-0.117,1.314,2.197,0.244,0.793
-0.018,-0.044,0.980,1.221,1.709,1.770
-0.024,0.005,0.731,-0.671,0.671,3.357
0.001,0.044,0.913,-0.061,0.305,3.601
-0.092,-0.041,1.100,2.075,1.343,2.686
0.027,-0.018,1.011,1.892,2.136,1.221
0.038,-0.061,1.032,0.671,0.977,0.000
-0.051,-0.012,0.835,0.427,0.610,0.183
0.068,0.010,0.791,1.465,1.221,1.221
0.013,-0.022,0.930,2.625,1.770,2.502
0.134,-0.108,1.236,1.953,1.404,3.174
0.008,-0.044,1.059,0.793,0.977,2.869
-0.081,-0.010,0.947,0.916,1.160,2.014
0.067,-0.004,0.957,1.526,1.709,1.892
0.100,-0.068,1.137,1.953,0.366,2.319
-0.073,-0.088,1.109,1.465,0.610,2.747
-0.037,0.018,0.734,0.122,1.465,2.380
0.093,-0.018,0.926,1.221,2.075,1.465
0.134,-0.098,1.119,3.052,0.793,2.441
-0.055,-0.056,1.035,0.610,0.366,2.930
0.031,-0.003,0.860,-1.221,1.526,2.686
-0.046,0.005,0.839,0.793,0.732,2.380
0.060,-0.046,1.092,2.441,1.221,1.892
0.021,-0.063,1.107,1.282,1.160,1.221
-0.001,-0.025,0.837,0.000,1.038,1.404
0.073,-0.008,0.875,0.671,1.587,1.343
0.052,-0.025,0.929,2.075,0.854,1.770
0.048,-0.037,0.956,1.404,1.160,2.136
0.008,0.021,1.003,0.549,0.916,1.892
-0.013,-0.034,0.982,0.183,0.793,0.610
0.022,-0.016,0.940,1.526,1.587,0.549
0.036,-0.032,0.943,1.648,1.526,1.160
0.073,-0.092,1.037,0.488,0.549,1.953
-0.002,-0.036,0.899,-0.549,0.366,1.526
0.028,-0.013,0.833,1.343,1.831,0.732
0.054,-0.013,0.987,2.380,1.526,0.732
0.122,-0.061,1.159,0.671,0.854,1.160
-0.041,-0.042,1.073,0.488,0.793,2.014
0.043,-0.078,0.934,0.854,1.404,2.075
0.101,-0.059,1.024,1.709,1.892,1.953
0.079,-0.061,0.861,0.854,1.160,1.343
-0.015,-0.026,0.810,0.549,0.793,2.625
-0.024,0.016,0.767,1.526,1.770,2.686
0.136,-0.009,0.956,2.075,1.648,2.563
0.076,-0.093,1.239,0.732,0.549,2.380
0.006,-0.025,0.984,0.610,1.099,1.831
0.123,-0.100,0.972,1.160,1.465,1.404
0.120,-0.059,1.008,1.709,1.343,1.526
0.081,-0.108,0.903,0.732,1.282,1.282
-0.012,-0.011,0.889,1.526,0.854,2.319
0.054,-0.007,0.894,1.465,1.892,2.930
0.066,-0.016,1.111,0.488,-0.183,3.906
0.051,-0.104,1.193,0.488,0.793,3.174
-0.077,-0.002,0.785,1.587,0.916,2.747
0.027,-0.020,0.773,1.892,2.136,1.160
0.127,-0.025,0.934,1.099,0.977,0.793
0.052,-0.121,1.196,0.244,0.061,0.610
0.041,-0.075,1.041,1.099,2.014,0.793
-0.086,0.004,0.870,1.648,0.916,1.221
0.126,-0.031,0.934,0.549,2.014,0.671
0.072,-0.036,1.037,0.244,0.610,0.854
-0.067,-0.010,0.903,1.099,1.526,0.732
-0.029,0.020,0.916,1.587,2.014,0.732
0.094,-0.032,1.117,0.549,1.221,0.427
0.022,-0.071,1.051,1.160,1.343,1.160
0.015,-0.016,0.825,1.648,0.916,1.831
0.046,-0.006,0.903,1.099,0.854,1.709
0.050,-0.022,0.883,1.282,0.610,1.953
0.015,-0.004,0.896,1.709,1.038,2.869
0.017,-0.010,1.008,1.404,0.916,2.930
0.160,-0.073,1.182,0.977,0.854,2.747
0.100,-0.143,1.178,1.892,0.977,3.113
-0.067,-0.029,0.794,1.587,0.916,3.235
0.052,-0.000,0.795,0.366,1.770,2.502
0.132,-0.039,0.976,0.122,0.488,2.441
0.009,-0.087,1.114,0.732,1.099,1.953
0.064,-0.085,0.985,1.221,1.831,1.648
-0.050,0.021,0.899,1.099,1.038,0.854
0.014,0.002,1.000,0.366,1.709,0.183
0.145,-0.088,1.106,0.549,1.343,0.427
-0.061,-0.042,1.046,1.892,1.038,1.221
-0.053,0.038,0.768,1.282,1.526,1.648
0.091,-0.010,0.929,1.099,1.099,1.343
0.164,-0.041,1.144,2.625,1.404,2.502
-0.027,-0.090,1.020,1.404,0.488,2.991
0.121,-0.028,0.960,0.854,1.282,3.235
0.017,-0.083,0.910,1.587,0.427,3.357
0.015,-0.016,0.934,3.296,1.526,4.150
-0.040,0.066,0.779,2.747,1.221,3.479
0.046,-0.049,1.020,1.587,1.038,2.869
0.121,-0.120,1.138,1.343,1.221,3.662
-0.019,-0.049,0.884,0.854,0.366,4.028
0.008,-0.066,0.853,1.709,1.587,3.296
0.096,-0.114,1.108,1.465,1.160,3.418
-0.004,-0.040,0.983,1.221,0.916,3.357
0.100,-0.050,0.826,1.282,1.648,2.747
-0.011,0.005,0.832,1.099,0.061,2.625
0.070,-0.001,0.843,0.977,1.953,2.075
0.144,-0.156,1.279,0.305,0.732,1.221
-0.008,-0.071,1.101,0.000,0.977,1.038
-0.061,0.038,0.584,0.000,1.526,1.282
0.054,0.047,0.776,1.343,1.831,2.075
-0.088,-0.000,0.857,1.526,0.000,3.052
0.162,-0.065,1.337,1.038,1.953,2.563
0.069,-0.104,1.132,0.061,0.854,1.953
-0.068,-0.002,0.779,0.549,0.732,1.831
-0.005,0.013,0.725,2.075,2.197,1.709
-0.026,0.020,0.919,1.831,0.549,2.625
0.155,-0.116,1.271,1.221,1.709,2.686
-0.059,-0.047,0.921,1.404,0.549,3.601
0.026,-0.009,0.825,0.977,1.099,3.296
-0.036,-0.016,0.941,0.671,1.404,2.441
0.117,-0.078,1.038,1.099,1.343,2.686
0.049,-0.088,1.240,1.953,0.916,2.747
-0.088,0.019,0.707,0.732,1.038,1.953
0.108,-0.007,0.826,0.916,1.892,0.427
0.218,-0.095,1.207,1.587,0.854,0.610
-0.036,-0.084,1.008,0.244,0.732,0.488
0.063,-0.040,0.827,0.671,1.709,0.610
0.080,-0.034,0.881,0.854,0.793,0.977
0.032,-0.013,0.877,1.404,1.038,0.549
0.130,0.007,0.841,0.732,0.977,-0.122
-0.076,-0.018,0.885,1.343,0.366,-0.427
0.234,-0.048,1.059,2.014,2.502,0.183
0.002,-0.044,1.032,0.732,-0.427,0.977
0.013,-0.094,1.017,0.916,1.648,1.160
-0.051,0.060,0.581,1.709,1.282,1.099
0.047,0.012,0.881,2.258,3.235,0.488
0.236,-0.100,1.195,0.854,0.305,0.732
0.013,-0.087,1.135,-0.244,-0.061,0.610
-0.001,-0.108,1.021,0.488,1.831,0.427
-0.087,0.016,0.668,1.526,0.610,0.732
0.079,-0.017,0.999,1.953,2.136,0.488
0.005,-0.048,1.059,0.488,0.061,1.160
0.008,-0.022,0.919,-0.427,0.916,0.854
0.012,-0.020,0.877,0.671,2.075,0.671
-0.012,0.001,0.841,1.709,1.038,0.427
0.031,0.022,0.985,1.221,1.648,-0.183
0.084,-0.029,1.094,0.427,1.099,-0.549
0.027,-0.085,1.051,1.404,1.221,0.183
0.026,-0.015,0.794,1.465,0.916,1.343
-0.058,-0.011,0.807,1.038,1.282,1.221
0.157,-0.045,0.994,0.854,1.587,1.831
0.027,-0.054,1.090,0.305,0.916,1.465
-0.015,-0.054,0.925,0.916,0.916,1.038
-0.011,0.012,0.865,1.831,0.610,1.038
0.026,0.017,0.986,1.099,1.038,1.038
0.080,-0.076,1.070,0.977,1.221,1.282
0.046,-0.058,1.037,1.770,0.427,2.014
-0.034,-0.024,0.850,1.831,1.465,2.319
0.000,0.005,0.860,1.099,1.099,2.747
0.097,-0.016,1.033,0.366,1.831,2.380
0.015,-0.044,0.980,1.587,0.488,2.686
-0.129,-0.006,0.919,1.526,0.732,2.075
0.084,-0.034,1.068,0.916,2.136,1.709
0.139,-0.106,1.170,0.427,1.221,1.404
0.135,-0.130,1.138,2.014,1.404,1.709
-0.094,0.001,0.799,1.526,0.305,2.197
0.045,0.006,0.732,0.732,2.197,2.075
0.124,-0.008,0.958,-0.122,0.122,3.174
0.063,-0.094,1.252,0.977,0.671,3.479
0.041,-0.078,1.044,1.282,0.305,3.601
-0.064,-0.019,0.990,2.197,1.282,4.089
-0.063,0.052,0.698,1.953,1.709,3.967
0.117,-0.037,1.007,2.014,2.014,3.418
0.191,-0.094,1.217,2.441,1.282,3.967
-0.035,-0.062,0.910,1.709,0.549,4.211
0.046,-0.020,0.808,1.404,1.953,4.211
-0.053,-0.015,0.940,-0.122,0.488,4.395
0.084,-0.052,1.064,-0.610,1.526,3.540
0.067,-0.062,0.998,-0.305,0.916,1.831
0.012,-0.046,0.874,1.038,0.732,1.221
-0.050,0.004,0.921,2.136,1.160,1.221
0.152,-0.077,1.168,1.404,1.282,1.770
-0.000,-0.079,1.035,0.610,0.671,2.197
0.036,-0.006,0.788,0.549,1.587,2.197
-0.008,-0.003,0.868,0.793,1.282,1.892
0.031,0.007,1.038,1.343,1.709,1.648
0.121,-0.103,1.173,1.099,1.343,0.793
0.005,-0.059,0.948,1.770,1.465,0.854
0.031,-0.022,0.745,2.136,1.282,1.831
0.057,-0.005,0.980,1.526,0.793,2.258
-0.011,-0.007,0.937,0.671,1.160,2.136
0.085,-0.030,0.965,0.305,1.465,1.770
0.109,-0.052,1.139,0.916,0.977,2.014
-0.035,-0.100,1.015,0.793,0.427,1.892
0.034,-0.039,1.012,0.977,1.038,1.831
-0.035,0.019,0.811,0.427,0.977,1.282
0.064,-0.007,0.924,0.549,1.404,0.916
-0.026,-0.029,1.120,1.282,0.916,0.854
0.053,-0.080,1.088,0.977,1.709,1.343
0.009,-0.059,0.960,0.671,0.732,1.648
0.007,0.010,0.835,0.671,1.038,1.587
0.038,-0.017,0.898,1.099,1.221,1.160
0.090,-0.026,0.872,1.404,1.282,0.793
-0.014,-0.008,0.921,1.770,1.404,0.732
0.021,-0.016,0.980,1.526,1.526,1.831
0.049,-0.039,1.067,0.427,0.854,2.991
0.082,-0.102,1.245,0.732,0.916,3.479
-0.003,-0.047,0.857,0.732,0.732,2.563
0.022,-0.047,0.834,1.648,1.953,1.282
-0.070,-0.005,0.732,1.770,0.488,1.099
0.089,-0.030,1.205,1.099,0.732,0.916
0.115,-0.073,1.148,0.488,0.732,1.099
0.046,-0.061,0.891,0.977,1.038,1.770
0.023,0.003,0.807,2.197,2.075,1.953
0.021,-0.020,1.008,1.770,0.061,2.380
0.039,-0.051,1.064,-0.061,0.977,1.770
0.091,-0.062,0.978,0.244,1.953,1.587
-0.030,-0.074,0.962,1.953,1.038,1.160
0.088,-0.097,0.975,2.380,1.770,0.916
0.065,-0.052,0.923,1.099,0.977,1.038
0.128,-0.066,0.886,0.732,1.648,1.404
0.121,-0.076,0.963,1.343,1.038,2.075
-0.017,-0.002,0.918,1.221,0.610,2.502
-0.086,0.006,0.858,1.038,1.343,1.892
0.010,0.018,1.080,0.916,1.221,1.282
0.150,-0.083,1.141,1.221,1.221,1.038
0.021,-0.096,1.093,1.526,-0.061,1.648
-0.023,0.003,0.713,1.831,1.953,1.953
-0.033,0.007,0.837,0.671,0.488,2.808
0.067,-0.054,1.247,-0.122,1.160,2.380
0.038,-0.043,1.122,0.183,1.343,2.380
-0.025,-0.044,0.920,1.343,1.038,1.831
0.063,-0.010,0.870,2.075,1.953,0.793
0.014,-0.050,1.080,1.831,0.488,0.732
0.092,-0.088,1.088,1.465,2.075,1.648
-0.066,-0.005,0.970,1.160,0.549,2.563
0.031,-0.037,1.030,1.160,1.404,2.014
-0.063,-0.013,1.009,1.160,1.038,2.258
0.104,-0.036,0.958,1.160,1.648,1.648
0.072,-0.126,1.133,1.282,0.427,1.892
-0.034,-0.033,0.840,0.671,0.549,1.831
0.063,-0.010,0.839,0.671,1.709,1.831
0.043,-0.018,0.993,0.366,0.732,2.197
0.070,-0.069,1.135,0.061,0.610,1.953
-0.095,-0.039,0.994,0.916,0.977,1.831
0.076,-0.047,0.929,1.282,1.648,2.197
0.052,-0.039,1.092,1.160,0.427,2.136
-0.064,0.009,0.785,0.183,0.854,1.099
0.016,0.017,0.776,0.793,1.770,0.488
0.010,-0.017,1.017,1.526,1.343,0.305
0.147,-0.086,1.209,1.343,1.099,0.732
0.006,-0.103,1.101,1.282,0.671,1.648
-0.082,0.029,0.717,0.305,0.488,2.380
0.071,0.027,0.780,0.427,1.831,1.221
0.082,-0.046,0.940,1.526,0.793,0.549
0.133,-0.053,1.049,1.770,1.282,0.244
-0.027,-0.014,0.717,0.854,1.160,0.793
0.137,-0.024,0.896,0.610,1.038,1.282
0.124,-0.054,1.079,1.221,0.854,1.953
0.097,-0.082,1.021,0.488,1.343,1.831
-0.016,-0.016,0.852,0.793,0.977,1.587
-0.096,0.016,0.796,1.709,1.221,0.916
0.094,-0.006,1.108,1.404,1.648,0.427
0.058,-0.067,1.130,0.916,0.793,0.488
-0.011,-0.061,0.964,0.977,0.244,1.160
0.053,-0.020,0.806,1.465,1.831,1.343
-0.063,-0.005,0.893,1.526,0.916,2.136
0.114,-0.058,1.109,1.038,1.404,2.075
-0.016,-0.052,1.076,0.793,0.671,1.709
-0.060,-0.022,0.804,0.793,1.221,0.977
0.064,-0.007,0.833,1.099,2.014,0.977
0.085,-0.025,0.935,1.343,0.732,0.549
0.058,-0.042,0.940,1.099,1.221,0.671
0.114,-0.045,0.958,0.549,0.977,0.488
-0.048,-0.023,0.925,1.099,0.732,0.488
-0.061,0.021,0.809,1.648,1.465,0.610
0.106,-0.027,1.064,1.221,1.343,0.732
0.205,-0.092,1.368,1.709,1.099,1.770
0.012,-0.125,1.039,0.671,-0.183,2.136
-0.045,-0.052,0.982,0.977,1.648,2.075
-0.025,0.011,0.703,0.061,1.587,1.831
0.127,-0.011,1.010,0.183,0.977,1.892
-0.035,-0.050,1.138,1.526,0.793,2.563
-0.012,-0.034,1.051,1.160,0.793,2.563
0.039,-0.040,1.040,0.244,1.404,1.648
-0.024,-0.000,0.783,0.793,0.732,1.038
0.037,0.002,0.808,2.441,0.916,1.038
0.038,-0.035,0.928,2.441,1.587,1.648
0.121,-0.084,1.180,0.427,1.160,2.380
-0.100,-0.017,0.882,1.160,0.183,3.113
0.074,-0.008,0.847,0.916,2.075,1.892
0.039,-0.014,0.985,0.793,0.610,1.221
-0.019,-0.023,0.978,1.282,1.404,0.977
0.088,-0.042,0.957,1.465,1.221,1.221
0.049,-0.047,1.013,0.610,1.221,1.465
0.024,-0.034,0.917,1.221,0.977,2.136
0.051,-0.014,0.851,1.587,0.671,2.197
0.048,-0.011,0.953,1.038,1.099,1.831
0.052,-0.014,0.839,0.977,1.099,1.709
0.066,-0.036,0.940,1.770,1.099,2.136
-0.032,-0.044,1.077,1.831,1.038,2.747
0.104,-0.083,1.074,0.122,1.404,3.113
0.041,-0.090,1.140,0.671,0.488,3.357
-0.060,-0.013,0.781,1.282,0.916,2.258
0.036,-0.005,0.769,1.282,1.648,1.099
0.119,-0.034,0.975,0.427,0.916,0.000
0.011,-0.064,1.068,0.610,0.366,0.183
0.057,-0.057,1.005,1.221,1.404,0.793
-0.004,0.003,0.873,1.404,1.221,1.831
0.047,0.005,0.881,0.732,1.465,2.075
-0.002,-0.011,1.050,0.732,1.038,1.831
0.088,-0.067,1.091,1.099,1.587,1.160
0.050,-0.055,0.960,1.587,0.977,1.099
-0.077,0.014,0.780,1.282,1.099,1.160
0.030,-0.006,0.908,1.160,1.465,0.977
0.156,-0.113,1.185,0.854,0.854,0.916
0.017,-0.104,1.132,2.258,0.854,1.099
-0.028,-0.012,0.610,1.587,1.648,1.343
0.068,0.004,0.802,0.427,1.221,1.709
-0.100,0.010,0.773,0.183,0.244,2.014
0.097,-0.038,1.208,1.404,1.160,1.831
0.024,-0.050,1.149,1.160,0.671,1.709
0.008,-0.042,0.933,0.549,1.038,1.221
0.009,0.002,0.716,1.160,1.831,0.854
-0.061,-0.002,0.876,2.014,0.488,1.282
0.156,-0.095,1.226,1.099,1.770,1.343
-0.043,-0.029,1.036,0.854,0.610,2.258
-0.073,-0.003,0.888,0.793,1.160,2.014
0.034,0.006,0.871,1.282,1.892,1.648
0.085,-0.051,1.107,2.380,0.916,2.258
-0.035,-0.092,1.113,1.526,0.854,2.380
-0.008,0.019,0.720,-0.427,1.343,2.197
-0.033,0.014,0.784,1.099,1.404,2.014
0.223,-0.052,1.141,3.357,1.770,2.380
0.024,-0.109,1.238,0.854,0.061,2.991
0.054,-0.050,0.893,-0.549,1.404,3.357
0.058,-0.033,0.833,-0.061,1.099,3.784
0.007,0.005,0.925,2.197,0.854,3.601
-0.059,-0.011,0.921,1.526,0.854,2.136
0.020,-0.011,1.041,0.427,0.793,2.075
0.097,-0.062,1.166,1.221,1.709,1.709
0.002,-0.047,0.911,2.319,0.305,2.258
0.057,-0.019,0.792,2.197,1.831,3.052
0.016,-0.016,0.964,1.221,0.732,4.089
0.083,-0.075,1.151,0.488,1.343,4.700
0.042,-0.050,1.060,1.465,1.343,4.089
-0.056,-0.025,0.820,2.014,0.671,2.991
0.075,-0.011,0.879,1.831,1.587,2.563
0.071,-0.024,0.914,1.160,0.916,2.197
0.008,-0.019,0.885,1.160,1.221,2.808
0.129,-0.020,0.848,1.038,0.549,3.113
-0.049,-0.017,0.916,1.465,0.732,2.869
0.050,-0.005,0.965,1.587,1.221,3.113
-0.024,-0.006,0.989,1.282,1.038,3.296
0.206,-0.136,1.268,1.404,0.732,3.296
0.022,-0.095,1.042,0.977,0.427,2.747
0.004,-0.042,0.903,1.282,1.099,2.014
-0.086,0.041,0.613,1.404,1.099,1.892
0.115,-0.035,1.059,1.648,1.160,1.282
0.004,-0.057,1.180,1.526,0.916,1.709
-0.020,-0.071,0.987,0.977,0.732,2.136
0.107,-0.074,1.016,1.099,1.770,2.136
0.021,-0.064,0.872,0.183,1.831,2.075
0.087,-0.031,0.825,0.366,1.709,2.014
0.129,-0.063,0.944,0.427,1.160,1.404
-0.066,-0.006,0.797,0.610,0.488,1.282
0.260,-0.038,1.046,1.099,2.625,1.099
0.005,-0.083,1.228,0.122,-0.427,1.160
0.098,-0.102,1.113,0.183,1.709,0.977
-0.058,0.009,0.835,0.916,0.366,1.465
-0.048,0.035,0.718,1.953,2.136,1.099
-0.073,0.017,0.920,1.282,0.183,1.038
0.097,-0.109,1.251,0.854,0.916,1.343
-0.166,-0.003,0.952,0.916,0.549,1.953
0.149,-0.069,0.951,0.610,2.075,2.075
0.013,-0.038,1.010,0.488,0.549,2.747
-0.002,-0.006,0.763,0.183,1.465,2.869
0.049,0.040,0.898,0.305,1.404,2.258
0.021,-0.016,0.899,0.793,1.038,1.038
-0.066,0.032,0.898,1.831,1.038,0.366
0.230,-0.055,1.084,1.831,1.770,0.305
0.047,-0.118,1.057,0.183,0.671,0.977
0.037,-0.048,0.943,1.465,1.526,1.526
-0.033,-0.003,0.878,1.953,0.793,2.991
0.094,-0.022,1.106,0.610,0.793,3.662
-0.023,-0.047,1.066,0.122,0.244,2.747
-0.039,-0.023,0.885,1.587,0.977,2.014
0.051,-0.030,0.906,1.953,1.648,0.854
-0.061,0.005,0.983,1.282,0.732,0.854
0.093,-0.070,1.069,0.916,1.587,1.709
-0.126,0.010,1.060,1.038,0.671,2.563
0.011,-0.054,1.029,0.916,1.526,2.014
-0.013,-0.041,0.856,1.160,0.610,1.953
0.013,0.008,0.803,0.854,2.136,0.977
0.180,-0.055,1.020,0.916,1.282,1.099
0.077,-0.095,1.019,0.305,0.854,1.038
0.052,-0.053,0.934,0.916,1.282,1.709
-0.109,0.034,0.623,1.648,1.099,1.831
0.130,0.018,1.090,1.892,2.014,1.404
0.098,-0.074,1.200,0.793,-0.122,1.587
0.005,-0.095,1.054,-0.061,0.549,1.526
0.006,-0.033,0.816,0.488,1.465,1.221
-0.146,0.015,0.702,1.465,0.427,1.404
0.129,-0.027,1.141,1.892,2.136,0.977
-0.038,-0.023,1.061,1.404,0.244,1.221
0.016,-0.040,0.918,0.610,0.610,0.610
0.102,-0.021,0.899,1.282,2.014,0.427
0.033,-0.014,0.910,1.892,0.854,0.610
0.075,-0.031,0.981,1.526,2.136,0.366
0.038,-0.067,1.002,1.099,0.610,1.587
-0.025,0.004,0.845,0.916,0.854,1.099
0.077,-0.020,0.901,0.671,1.465,0.732
-0.007,0.020,1.000,0.793,0.366,0.488
0.057,-0.062,1.094,1.465,0.732,0.610
0.047,-0.063,0.936,1.648,0.549,2.258
-0.051,0.016,0.800,0.854,1.160,3.235
0.007,0.011,0.944,0.610,1.038,2.869
0.138,-0.110,1.150,0.671,1.465,2.014
0.033,-0.113,1.127,2.319,1.404,1.343
-0.048,0.000,0.651,1.892,1.343,1.038
0.031,0.031,0.776,0.977,1.282,1.221
-0.118,0.070,0.840,0.427,0.916,1.892
0.030,-0.010,1.063,0.916,1.038,1.648
0.051,-0.050,1.183,2.502,1.160,1.404
-0.083,-0.013,0.856,1.770,-0.183,1.831
0.094,-0.023,0.884,1.404,1.770,1.892
-0.092,0.018,0.832,1.038,0.977,2.625
0.115,-0.075,1.152,1.587,1.343,3.357
-0.006,-0.057,1.096,1.709,0.305,2.991
-0.087,-0.005,0.819,1.892,0.854,2.258
0.098,-0.024,0.915,1.526,1.953,1.587
-0.013,-0.006,0.994,1.221,0.671,1.526
0.116,-0.062,1.026,0.854,1.465,1.465
0.097,-0.083,1.013,0.854,1.282,2.502
-0.084,-0.002,0.777,0.732,0.977,3.113
-0.095,0.032,0.832,1.038,1.282,2.625
0.154,-0.060,1.092,0.610,1.465,1.831
0.126,-0.139,1.252,0.671,1.404,1.038
0.014,-0.041,0.796,0.854,1.038,1.221
0.049,-0.018,0.822,1.709,1.709,1.953
-0.064,0.069,0.498,1.709,0.793,3.052
0.137,0.005,0.980,2.625,0.671,3.784
-0.038,-0.037,1.198,2.502,0.122,3.418
0.094,-0.098,1.039,2.136,1.648,3.662
0.016,-0.042,1.006,2.441,0.244,4.272
-0.084,0.023,0.765,2.014,0.549,3.479
0.098,-0.020,0.925,1.648,1.892,2.380
0.111,-0.052,1.016,0.916,1.831,1.770
0.039,-0.104,1.072,0.488,0.793,1.892
0.094,-0.068,0.943,1.038,1.404,2.380
0.048,-0.071,0.957,1.221,1.038,4.028
0.012,-0.045,0.945,1.526,0.854,4.395
-0.028,0.049,0.713,1.526,1.282,3.296
-0.078,0.041,0.789,1.831,1.099,2.747
0.034,-0.005,1.022,2.319,1.831,2.625
0.098,-0.127,1.352,1.953,-0.366,2.991
0.005,-0.077,0.978,2.258,0.854,2.625
0.107,-0.037,0.807,1.709,1.038,3.357
-0.053,0.023,0.836,1.526,0.122,4.456
-0.092,0.019,0.960,0.854,0.610,3.967
-0.025,0.002,1.104,0.061,1.343,2.502
0.100,-0.128,1.153,-0.488,2.197,0.793
0.012,-0.057,0.876,-0.671,0.671,0.854
0.045,-0.035,0.765,0.000,1.831,0.916
-0.071,0.007,0.776,-0.305,0.916,2.197
0.144,-0.066,1.203,-0.244,1.770,1.770
-0.032,-0.061,1.137,-0.366,0.977,1.648
-0.032,-0.033,0.834,0.183,0.977,0.732
0.157,-0.021,0.918,0.793,2.136,-0.244
0.062,-0.091,0.974,0.671,0.732,-0.610
0.022,-0.036,0.908,1.160,1.160,0.366
0.077,-0.005,0.850,1.221,1.526,1.160
-0.044,0.008,0.857,0.732,1.221,1.709
0.168,-0.045,1.071,0.549,0.610,1.587
0.064,-0.082,1.187,0.244,0.488,1.160
0.060,-0.106,0.957,0.000,1.648,0.549
-0.092,0.040,0.727,0.610,0.610,0.916
0.003,0.020,0.865,1.831,1.221,1.160
0.147,-0.058,1.082,1.953,0.244,1.709
0.023,-0.088,1.117,1.526,0.916,2.136
-0.030,-0.065,0.899,1.160,1.526,2.319
0.016,0.000,0.844,0.732,1.282,1.404
0.037,0.006,0.984,0.244,1.770,1.099
0.064,-0.043,0.923,0.122,0.916,0.854
-0.006,-0.016,0.935,0.793,1.465,0.854
-0.035,0.007,0.997,1.404,1.648,0.977
0.099,-0.029,1.074,1.404,1.709,1.648
0.079,-0.083,1.159,1.465,0.549,2.502
-0.018,-0.052,0.868,1.709,0.671,2.563
0.054,-0.002,0.775,2.136,1.709,2.258
0.057,-0.019,0.927,1.709,0.671,1.709
0.067,-0.063,1.049,1.770,0.610,2.197
0.044,-0.046,0.997,1.648,0.854,2.625
0.078,-0.058,0.856,1.648,1.099,3.052
0.126,-0.038,0.877,1.831,1.282,3.662
0.091,-0.107,1.064,1.221,0.549,2.869
-0.056,-0.053,0.890,0.977,1.038,2.319
0.054,0.020,0.885,1.038,2.380,2.014
-0.009,0.004,0.981,0.488,1.282,2.380
0.156,-0.098,1.136,0.916,1.160,2.625
0.100,-0.104,1.172,0.793,0.732,2.319
0.032,-0.098,0.875,0.671,1.648,1.953
-0.053,0.027,0.743,0.610,1.099,2.197
0.034,0.034,0.936,0.549,1.221,1.831
0.061,-0.058,1.045,0.427,0.366,1.465
0.003,-0.045,0.967,0.488,0.732,1.526
0.102,-0.078,0.912,0.854,1.770,1.831
0.052,-0.063,0.916,1.099,0.610,2.075
0.086,-0.024,0.953,1.770,1.343,2.319
0.117,-0.130,1.030,1.709,1.282,1.282
-0.054,-0.036,0.915,1.831,0.977,1.465
-0.044,0.059,0.877,2.014,1.892,1.648
0.111,-0.034,1.039,1.282,1.343,1.343
-0.092,0.005,1.128,0.732,0.427,2.136
0.047,-0.070,1.057,0.122,1.831,2.014
0.053,-0.081,1.044,0.061,0.916,2.197
-0.002,-0.008,0.763,-0.244,1.038,1.587
0.030,-0.021,0.885,-0.183,0.916,1.221
0.142,-0.049,0.981,0.610,0.549,1.099
0.070,-0.071,1.121,1.770,0.488,1.221
0.061,-0.100,0.954,1.648,1.099,0.916
-0.052,0.000,0.791,1.282,0.854,1.648
-0.016,0.005,0.930,1.160,1.526,1.587
0.156,-0.058,1.031,0.916,0.977,1.587
-0.016,-0.070,1.051,0.977,0.671,1.892
0.043,-0.077,0.932,1.465,1.892,1.892
0.062,-0.040,0.840,1.282,1.099,1.282
0.065,-0.049,0.935,1.099,1.404,0.916
0.092,-0.046,0.897,0.977,1.343,0.793
0.053,-0.069,1.105,0.854,0.610,2.075
-0.035,-0.047,0.828,1.038,0.549,2.136
0.030,0.000,0.781,1.160,1.221,2.197
0.065,-0.038,0.997,1.282,0.854,1.526
0.068,-0.075,1.047,1.160,0.732,2.075
0.075,-0.072,1.023,1.831,1.160,2.258
0.023,-0.091,0.915,1.648,0.732,1.770
-0.054,0.010,0.773,1.953,1.526,1.709
0.142,-0.010,0.975,2.319,2.380,1.404
0.012,-0.027,1.067,2.197,0.183,2.075
0.046,-0.040,0.876,2.380,1.160,1.465
0.036,-0.001,0.838,1.831,1.770,1.099
0.024,-0.016,1.008,1.709,1.282,1.953
0.051,-0.050,1.141,1.099,0.610,2.258
0.067,-0.091,1.106,0.793,0.793,2.197
0.079,-0.084,0.909,0.549,0.977,2.380
0.039,-0.020,0.843,0.793,0.977,2.319
-0.103,0.024,0.889,0.854,0.549,1.465
0.064,-0.025,1.078,1.099,1.099,1.770
0.035,-0.056,1.096,0.854,0.793,1.709
0.011,-0.064,0.891,0.732,0.793,2.136
0.047,-0.027,0.862,0.916,1.343,2.686
-0.055,0.021,0.923,0.488,1.038,2.319
0.121,-0.050,1.045,0.122,1.526,1.343
0.030,-0.071,1.014,0.061,0.977,1.282
-0.046,-0.025,0.809,0.427,1.892,1.038
-0.019,0.001,1.001,1.099,1.343,0.916
0.123,-0.113,1.156,1.038,1.648,0.366
-0.017,-0.042,1.070,1.709,0.793,0.854
0.170,-0.106,0.970,1.831,1.709,0.488
0.052,-0.051,0.946,1.709,0.244,0.916
-0.009,0.007,0.746,1.404,1.587,1.099
0.079,0.018,0.974,0.427,0.732,1.709
-0.110,-0.011,1.087,0.000,0.793,1.648
0.085,-0.061,1.100,-0.549,1.465,1.709
0.099,-0.078,1.187,-0.488,1.160,1.587
-0.059,-0.007,0.720,0.061,0.732,1.953
0.065,-0.041,0.788,2.380,1.404,1.099
-0.212,0.024,0.801,2.808,0.305,0.977
0.129,-0.078,1.184,2.380,2.380,0.793
-0.041,-0.034,1.087,0.732,0.366,1.465
-0.014,-0.012,0.809,-0.122,1.587,2.014
-0.006,0.012,0.795,-0.427,1.099,2.563
0.028,0.010,0.919,0.244,1.709,2.075
0.143,-0.089,1.091,0.732,1.831,0.366
0.014,-0.063,0.991,1.709,0.732,-0.122
0.005,0.008,0.818,2.197,0.793,0.183
0.056,0.004,0.867,1.892,1.038,1.343
0.041,0.006,1.015,1.343,0.549,2.380
-0.014,0.012,0.999,0.977,0.793,2.747
-0.074,0.003,1.007,1.221,1.038,2.808
0.027,-0.007,1.016,1.282,1.099,2.258
0.069,-0.066,1.047,1.831,1.038,2.747
0.099,-0.103,0.972,1.770,1.099,2.380
0.080,-0.041,0.874,1.892,0.977,3.235
0.123,-0.134,0.963,1.221,1.465,2.747
-0.022,-0.018,0.825,0.854,0.366,3.296
0.123,-0.032,0.795,0.916,2.380,3.296
-0.026,0.020,0.792,0.488,0.610,3.601
0.206,-0.052,1.098,0.977,1.709,2.747
0.084,-0.106,1.255,0.427,-0.183,2.136
0.194,-0.176,1.170,1.221,2.380,1.648
-0.041,-0.009,0.645,1.465,0.549,2.625
0.024,-0.014,0.730,2.747,1.282,2.808
0.113,-0.028,1.036,2.441,0.916,2.747
-0.007,-0.077,1.180,2.258,0.366,3.235
0.004,-0.078,0.973,2.502,0.854,3.662
-0.073,0.057,0.875,1.831,0.549,2.869
0.033,-0.031,0.974,0.977,1.831,0.793
-0.016,-0.034,1.033,0.244,1.404,0.244
0.071,-0.064,1.073,0.122,1.648,1.587
-0.101,-0.010,0.895,0.427,0.610,2.930
0.106,-0.042,0.971,0.854,0.793,2.930
0.061,-0.095,1.141,0.916,0.610,2.686
0.067,-0.057,0.810,0.671,2.014,1.770
0.066,-0.053,0.815,1.099,1.709,1.099
-0.138,0.053,0.609,0.671,0.549,1.099
0.136,-0.021,1.173,1.465,1.221,0.977
-0.001,-0.054,1.198,0.793,0.122,2.014
-0.022,-0.054,0.919,0.916,0.671,2.686
0.044,-0.024,0.752,1.282,1.648,2.014
-0.094,0.022,0.815,1.221,0.854,1.648
0.204,-0.109,1.239,1.221,1.709,0.427
-0.050,-0.036,1.052,1.160,0.549,0.488
-0.041,-0.004,0.817,1.526,1.343,0.244
0.046,0.002,0.925,1.343,1.587,0.793
0.048,-0.066,1.142,0.977,0.610,1.099
0.004,-0.045,1.034,0.732,0.854,1.587
0.130,-0.100,1.009,0.549,2.258,1.343
-0.023,-0.063,0.894,0.244,0.732,1.099
-0.059,-0.007,0.865,0.183,1.221,0.854
-0.054,0.036,0.964,-0.854,0.549,0.793
0.167,-0.097,1.115,-1.404,2.441,0.549
0.124,-0.119,1.168,-1.343,1.038,1.038
-0.073,-0.027,0.832,1.404,1.282,0.305
-0.092,0.027,0.666,1.465,0.488,-0.305
0.097,0.020,1.091,1.160,1.892,-0.122
0.046,-0.045,1.104,0.488,0.305,1.160
0.050,-0.072,1.055,0.610,1.099,1.587
-0.020,-0.002,0.791,1.221,1.770,1.587
-0.005,-0.008,0.848,1.160,0.793,1.526
0.118,-0.061,1.120,1.160,1.709,1.343
-0.059,0.011,0.903,1.282,0.305,2.258
0.081,-0.026,0.897,1.892,2.075,2.319
0.136,-0.056,1.030,1.953,0.977,2.869
-0.006,-0.076,1.050,1.465,0.793,3.723
0.078,-0.064,0.928,1.709,1.160,4.456
0.082,-0.028,0.810,1.953,0.671,4.211
0.008,0.004,0.847,2.563,1.221,3.723
0.073,-0.005,0.948,2.625,0.427,3.662
-0.064,0.003,1.011,2.686,-0.061,4.272
0.170,-0.132,1.207,2.380,0.793,4.150
0.071,-0.098,1.048,1.221,0.671,4.089
0.027,-0.102,0.933,1.160,1.282,3.418
-0.107,0.043,0.655,0.671,0.427,3.174
0.015,0.022,1.004,1.404,1.770,2.502
0.060,-0.030,1.141,0.793,1.038,2.197
0.082,-0.127,1.101,0.916,1.526,1.709
0.014,-0.031,0.863,1.770,1.709,1.770
0.065,-0.068,0.912,2.014,1.038,1.465
-0.005,-0.065,1.211,-0.061,0.305,1.526
0.177,-0.138,1.165,0.244,2.197,1.587
-0.017,-0.011,0.787,-0.061,0.122,2.136
0.011,0.004,0.677,1.587,1.892,2.075
0.179,-0.049,1.087,1.587,0.000,2.258
0.038,-0.089,1.209,1.953,0.122,2.441
0.026,-0.072,0.976,2.075,1.282,2.319
-0.019,0.011,0.788,2.014,0.916,2.380
0.022,-0.023,0.868,2.014,1.343,1.648
0.033,-0.037,1.033,0.977,0.244,0.854
0.053,-0.072,1.111,0.610,1.282,1.221
0.024,-0.021,0.821,0.305,0.793,2.136
0.013,0.003,0.809,0.488,1.282,2.625
0.140,-0.068,1.056,0.671,1.038,2.502
0.011,-0.091,1.058,0.488,1.343,2.441
-0.015,0.013,0.802,1.099,0.854,2.991
-0.002,-0.015,0.886,1.465,0.427,2.991
0.102,-0.025,1.059,0.916,0.427,3.052
0.021,-0.069,1.031,0.244,0.671,2.747
0.055,-0.055,0.983,0.000,0.732,2.747
0.024,-0.008,0.913,0.122,0.549,2.869
-0.005,-0.027,0.896,0.366,0.244,2.686
0.111,-0.031,1.014,1.160,0.488,2.747
-0.011,-0.044,1.046,1.831,-0.977,2.991
0.099,-0.046,0.969,2.747,-1.038,3.174
0.112,-0.052,1.024,3.296,-3.174,3.479
0.073,-0.041,0.980,3.357,-5.005,3.784
0.148,-0.059,0.975,3.052,-8.240,4.333
0.156,-0.038,0.903,1.221,-15.259,4.700
-0.201,-0.105,1.104,-1.770,-22.583,5.066
-0.154,-0.101,1.019,-13.245,-11.902,6.775
0.047,0.141,0.523,-22.156,1.648,10.193
0.012,0.021,0.969,-1.038,0.183,13.062
-0.041,-0.124,1.140,17.944,-3.601,13.428
0.042,-0.218,1.508,9.583,-0.916,12.207
-0.057,-0.016,0.905,-7.996,-2.136,10.559
0.049,0.093,0.649,-10.376,3.296,9.460
-0.162,0.056,0.491,2.686,-0.732,7.324
-0.060,-0.027,0.962,12.085,1.648,5.127
-0.113,-0.087,1.111,4.700,1.465,3.479
-0.061,0.001,0.863,-4.150,2.502,2.197
0.048,0.033,0.838,-6.592,4.150,1.526
-0.076,-0.004,0.857,-0.671,2.869,0.793
0.172,-0.069,1.150,5.981,2.563,0.183
0.052,-0.069,1.196,4.272,0.549,-0.061
0.041,-0.030,0.942,1.038,0.854,0.549
0.076,-0.049,0.917,-1.526,1.465,1.343
0.004,-0.001,0.911,-4.211,1.282,1.831
0.004,-0.008,0.886,0.122,0.366,1.831
0.005,-0.016,0.753,4.517,-0.305,1.953
0.026,-0.040,1.005,1.465,0.610,2.869
0.136,-0.070,1.178,-1.770,0.549,3.662
0.025,-0.043,1.144,0.793,0.854,3.967
-0.068,-0.056,1.088,2.930,1.404,3.906
-0.013,0.043,0.601,1.465,0.671,3.418
-0.016,-0.021,0.961,0.793,2.197,3.357
0.081,0.015,0.911,0.244,1.709,3.113
-0.077,-0.016,0.860,0.977,1.770,3.357
0.050,0.013,0.944,2.625,1.404,3.906
-0.067,-0.045,0.934,1.343,1.099,4.089
0.116,-0.041,1.215,1.160,2.197,3.967
-0.001,0.023,0.775,0.610,0.671,3.906
-0.004,0.007,0.732,2.441,1.953,3.906
-0.084,-0.021,0.688,2.991,-0.244,3.723
0.088,-0.092,1.297,3.113,1.587,3.540
0.169,-0.134,1.219,0.793,0.244,3.418
-0.011,-0.028,1.013,0.244,0.916,3.540
-0.021,-0.025,0.697,2.136,1.831,3.296
0.106,-0.010,0.931,2.258,-0.122,3.540
-0.012,-0.060,1.105,1.953,0.671,3.662
0.046,-0.066,0.994,0.732,1.221,3.418
-0.052,-0.038,1.046,-0.122,1.831,2.869
-0.014,-0.056,0.999,-0.488,1.892,2.014
-0.005,0.017,0.736,-0.793,1.404,1.343
-0.008,0.003,0.845,0.183,2.258,1.221
0.150,-0.065,1.061,0.793,0.977,1.404
-0.012,-0.017,1.062,0.854,0.488,1.526
0.010,-0.027,0.858,0.610,2.014,1.953
0.011,-0.031,0.898,0.977,1.526,2.502
0.060,-0.025,0.977,1.343,1.160,2.991
-0.035,-0.014,0.969,0.916,0.427,3.113
0.073,-0.019,0.950,0.610,1.343,3.479
0.026,-0.040,1.067,1.648,1.038,3.601
-0.008,-0.019,0.946,1.465,0.427,3.479
-0.021,0.012,0.830,1.099,1.282,3.662
0.058,-0.001,0.824,1.343,1.099,3.601
0.026,-0.020,0.964,2.197,0.977,3.784
0.059,-0.014,0.947,2.014,0.977,3.723
-0.018,-0.026,0.923,1.160,1.221,3.723
-0.012,-0.046,1.089,1.465,1.160,3.601
0.011,-0.076,1.108,1.221,1.770,3.357
-0.000,-0.048,0.975,1.526,0.610,3.052
0.005,-0.006,0.820,1.343,0.977,2.380
-0.019,0.004,0.911,0.793,1.404,1.831
0.098,-0.058,1.001,1.221,1.038,1.160
0.004,-0.073,1.143,1.648,0.793,0.732
0.007,-0.030,0.935,1.160,0.977,0.610
0.013,-0.012,0.832,0.732,1.038,0.793
0.012,-0.034,0.965,0.671,1.282,1.038
0.054,-0.005,0.860,0.916,1.221,1.038
0.006,-0.028,0.914,1.038,1.465,0.916
0.096,-0.020,0.929,1.160,1.221,0.732
-0.027,-0.026,0.875,0.671,0.732,1.038
0.061,-0.032,1.025,0.916,1.648,1.282
0.147,-0.137,1.286,0.732,1.709,1.404
0.096,-0.143,1.327,1.953,1.587,1.221
-0.091,0.022,0.759,1.648,-0.244,0.916
-0.039,-0.012,0.719,2.197,2.075,1.160
0.082,-0.028,1.049,0.671,0.916,1.526
0.017,-0.059,1.131,-0.427,0.610,2.563
-0.134,-0.022,0.971,0.549,0.793,3.113
0.002,-0.060,0.992,1.465,1.770,2.747
-0.053,-0.027,1.074,1.831,0.793,2.197
0.056,-0.083,0.989,1.099,1.770,1.648
0.006,-0.022,0.986,0.854,0.732,1.465
-0.080,0.002,0.790,0.244,2.075,2.075
0.039,-0.005,0.970,0.366,1.343,2.991
0.190,-0.140,1.312,1.404,0.977,3.235
-0.013,-0.057,1.113,1.221,0.854,2.747
-0.065,-0.000,0.732,1.221,2.014,2.258
0.120,-0.086,1.149,2.502,1.892,2.686
0.028,-0.047,1.010,2.502,0.305,3.235
-0.013,0.012,0.756,0.854,1.465,3.601
0.007,-0.029,0.977,-0.366,1.038,3.967
0.048,-0.069,1.125,0.854,1.343,4.089
0.067,-0.063,1.057,2.686,1.038,4.211
-0.020,-0.040,0.930,1.953,0.671,3.906
0.024,0.013,0.714,0.427,1.404,3.845
0.038,-0.008,0.858,0.671,1.526,3.906
0.007,-0.052,1.105,1.709,0.793,3.845
0.076,-0.040,1.064,0.977,1.343,4.150
-0.036,-0.062,1.166,0.854,0.671,4.517
-0.012,0.039,0.673,0.671,0.977,4.211
0.056,0.001,0.859,2.136,2.625,3.723
0.011,-0.066,1.121,2.502,0.122,3.418
0.032,-0.024,0.958,1.526,0.183,3.540
0.002,-0.002,0.855,1.099,1.648,3.845
-0.071,0.019,0.691,0.977,0.977,3.784
0.111,-0.054,1.089,2.014,2.136,3.784
0.046,-0.090,1.220,2.075,0.061,3.601
-0.014,-0.026,0.976,1.526,0.305,3.174
-0.018,0.005,0.751,1.038,1.831,2.747
-0.028,-0.018,0.903,0.977,1.160,2.441
0.074,-0.082,1.151,1.038,1.038,2.441
0.014,-0.015,0.957,0.916,0.488,2.258
-0.031,-0.014,0.817,1.099,1.709,2.136
0.075,-0.054,1.107,0.916,1.709,1.892
0.068,-0.133,1.275,0.244,1.587,1.465
0.003,-0.089,1.095,0.549,1.160,0.977
-0.056,0.054,0.608,0.671,0.610,0.610
0.046,0.024,0.762,1.465,1.648,0.732
0.048,-0.052,1.048,0.488,0.305,1.221
0.053,-0.093,1.273,0.488,1.831,1.343
-0.010,-0.042,0.935,0.854,0.671,1.648
-0.103,-0.014,0.916,0.977,0.549,1.648
0.071,-0.021,1.013,0.610,1.770,1.465
0.030,-0.050,1.006,0.549,0.671,1.282
-0.089,-0.019,0.919,1.221,1.282,0.854
-0.112,0.005,0.866,1.099,1.648,0.488
0.036,-0.065,1.106,0.854,2.014,0.427
0.107,-0.093,1.248,1.953,0.854,0.305
0.008,-0.012,0.975,0.916,0.183,0.732
-0.028,0.037,0.630,0.793,1.831,1.282
-0.123,0.007,0.742,0.916,0.977,1.648
0.142,-0.083,1.213,1.160,2.441,2.075
-0.015,-0.039,1.111,0.488,-0.305,2.502
-0.008,0.008,0.803,0.610,0.977,2.502
0.030,-0.009,0.826,1.526,1.648,2.380
0.019,-0.019,0.979,1.831,0.366,2.136
0.038,-0.045,1.016,0.671,1.587,1.648
0.076,-0.002,0.900,0.305,1.221,1.709
-0.035,-0.026,0.860,1.282,1.526,1.953
-0.014,-0.025,0.951,1.831,1.099,2.502
0.045,-0.072,1.158,0.793,1.343,2.930
-0.016,-0.036,1.109,1.282,0.854,3.113
0.033,-0.056,0.944,1.831,1.404,3.235
-0.021,-0.018,1.017,2.380,0.671,2.869
-0.014,0.012,0.807,2.258,1.099,2.869
0.109,-0.000,0.947,2.014,0.977,3.479
0.017,-0.070,1.127,1.709,0.244,3.967
-0.005,-0.032,0.998,1.404,0.793,3.845
0.001,-0.003,0.813,1.526,1.587,3.540
-0.079,0.015,0.817,1.709,1.038,3.113
0.074,-0.061,1.054,2.075,1.160,2.747
-0.072,-0.046,1.122,1.709,0.366,2.869
-0.022,-0.081,1.009,1.343,1.892,3.113
0.036,-0.069,1.060,1.038,0.977,3.235
0.025,-0.005,0.917,0.732,1.160,2.563
-0.008,0.009,0.771,0.793,1.648,2.075
0.090,-0.029,0.988,1.038,1.282,1.465
0.058,-0.094,1.213,1.099,0.916,1.404
0.018,-0.056,1.022,0.916,1.404,1.587
-0.009,0.010,0.777,1.160,1.038,1.953
0.036,-0.008,0.891,1.038,1.709,2.319
0.046,-0.045,0.978,0.061,1.343,2.136
-0.026,-0.026,0.964,-0.916,1.892,1.526
-0.023,-0.032,0.985,-1.160,1.587,0.793
0.014,-0.029,0.967,0.122,1.526,-0.061
0.050,-0.076,1.109,1.526,1.404,-0.671
0.004,-0.040,1.015,0.305,1.160,-0.488
-0.012,0.001,0.856,0.244,1.282,-0.122
-0.088,-0.003,0.864,0.977,1.160,0.061
0.097,-0.031,1.011,0.854,1.770,0.244
0.051,-0.043,1.126,0.671,0.854,0.183
-0.083,-0.042,0.967,0.793,0.732,-0.061
-0.143,-0.016,0.911,1.404,1.404,0.061
0.091,-0.062,1.036,1.038,2.258,0.488
0.103,-0.090,1.161,1.282,0.305,0.793
-0.011,-0.001,0.889,-0.366,1.099,1.465
-0.030,-0.041,0.907,1.709,1.343,2.075
-0.080,-0.022,0.938,1.343,1.282,2.319
0.075,-0.049,1.099,0.000,1.831,2.197
-0.012,-0.077,1.166,1.770,0.427,1.892
0.030,-0.082,1.001,-0.366,2.380,2.014
0.020,-0.056,0.996,0.427,1.160,1.709
-0.012,-0.051,0.847,-0.244,2.136,1.648
-0.029,-0.011,0.824,0.305,0.732,1.587
-0.204,-0.046,0.753,-0.122,2.136,2.075
0.044,-0.011,1.075,0.183,1.831,2.441
0.292,-0.085,1.404,2.808,2.258,5.188
-0.021,-0.038,1.101,2.136,0.061,8.423
-0.136,0.036,0.728,1.343,2.808,10.559
0.068,0.025,0.757,1.282,0.793,11.536
0.057,-0.005,0.964,2.502,0.549,12.146
0.159,-0.036,1.028,3.906,0.488,12.817
-0.044,-0.055,1.064,3.662,0.000,13.489
-0.003,-0.048,0.961,3.052,1.465,14.343
0.059,0.013,0.793,3.235,0.916,15.381
-0.041,-0.040,0.838,3.723,1.099,16.968
0.146,-0.030,0.916,2.625,0.366,18.616
-0.032,-0.039,0.994,1.587,0.305,19.165
0.204,-0.095,1.179,0.671,1.892,18.555
0.021,-0.083,1.216,0.305,0.244,17.456
-0.044,-0.011,0.971,1.831,1.526,15.991
-0.047,0.053,0.542,2.014,0.610,14.526
0.090,-0.008,0.962,2.380,1.770,14.221
0.074,-0.055,1.160,1.892,-0.427,14.954
-0.010,-0.015,1.005,1.526,-0.305,16.113
-0.034,-0.006,0.778,0.916,1.831,17.395
-0.081,-0.020,0.889,0.183,0.610,17.395
0.016,-0.016,0.921,2.075,0.427,16.174
-0.052,-0.047,0.868,2.502,1.709,16.113
0.089,-0.058,1.093,1.831,1.343,15.381
0.035,-0.123,1.234,0.488,1.465,15.442
0.007,-0.078,1.093,1.099,1.160,15.686
-0.069,0.024,0.646,1.038,0.488,14.954
-0.025,0.025,0.742,0.854,1.526,13.977
0.051,-0.051,1.030,1.099,0.854,12.512
0.136,-0.107,1.349,0.793,1.282,11.230
-0.001,-0.055,0.975,1.648,0.183,10.681
-0.023,0.004,0.813,1.099,0.549,11.108
0.073,-0.013,0.954,1.160,1.343,12.085
-0.058,-0.065,1.046,2.258,0.671,13.000
0.030,-0.038,1.069,1.648,1.221,13.733
-0.027,0.008,0.865,0.916,0.916,14.160
-0.072,0.013,0.660,1.831,1.465,14.099
-0.031,-0.013,0.883,1.831,1.892,12.939
0.058,-0.097,1.325,0.610,1.343,12.024
0.161,-0.174,1.363,3.052,1.892,11.353
-0.051,-0.036,0.993,2.319,0.305,10.132
-0.138,0.038,0.571,0.610,2.441,9.399
0.134,0.016,0.897,-1.099,0.916,9.766
-0.023,-0.150,1.321,2.747,-0.183,9.460
0.056,-0.107,1.109,2.686,0.916,7.751
-0.042,0.040,0.683,-1.038,0.732,6.348
-0.037,0.011,0.730,1.709,2.136,5.798
0.044,-0.047,0.996,2.747,0.671,5.859
0.141,-0.115,1.310,0.122,1.282,6.165
-0.075,-0.042,0.953,0.854,0.427,6.836
-0.027,0.037,0.701,0.488,0.977,7.019
0.023,-0.043,0.973,1.587,1.465,6.714
0.051,-0.077,1.141,1.160,1.526,6.714
0.008,-0.013,0.996,1.343,0.854,6.409
0.032,0.012,0.803,0.427,1.587,6.409
-0.032,0.017,0.780,2.075,0.732,6.165
-0.042,-0.010,0.826,1.526,1.770,5.676
0.117,-0.114,1.316,1.099,0.366,5.371
0.232,-0.173,1.421,2.686,1.526,4.700
-0.122,-0.026,0.919,0.366,0.854,4.578
-0.075,-0.005,0.667,2.747,2.380,4.272
0.101,-0.009,0.932,0.916,0.305,4.028
0.019,-0.065,1.098,-0.549,0.305,4.517
-0.051,-0.056,1.075,1.587,1.648,4.333
0.067,-0.118,1.178,1.526,2.014,3.235
-0.011,-0.057,1.060,1.282,0.183,2.686
-0.042,0.016,0.738,-0.183,0.916,3.052
0.006,-0.004,0.876,1.709,1.343,3.479
0.125,-0.094,1.140,2.502,1.587,3.357
0.082,-0.078,1.223,0.000,1.282,3.662
-0.024,-0.071,1.006,1.953,1.221,4.272
-0.090,0.021,0.675,0.732,0.610,4.456
0.086,-0.018,0.995,1.709,1.770,4.822
-0.096,-0.059,1.126,1.526,0.366,4.761
0.071,-0.065,1.059,0.244,2.136,4.578
-0.033,-0.035,0.864,1.953,0.854,3.906
0.087,-0.039,0.892,0.427,1.648,3.662
-0.139,-0.027,1.118,0.793,0.427,3.784
0.068,-0.097,1.099,0.671,2.625,3.845
-0.017,-0.047,1.177,2.136,0.183,3.357
-0.088,0.089,0.554,-0.671,1.099,3.357
0.065,-0.025,0.938,2.441,1.892,3.540
0.150,-0.119,1.307,4.211,0.793,3.357
-0.054,-0.010,0.999,-0.122,0.549,3.662
0.062,-0.001,0.796,0.977,1.953,4.333
0.076,-0.096,1.126,1.709,0.977,4.517
-0.041,-0.057,1.112,1.587,0.732,4.028
-0.066,0.062,0.490,0.427,1.770,2.930
-0.067,0.017,0.828,2.930,2.014,2.075
0.154,-0.090,1.152,2.625,2.136,1.404
0.173,-0.198,1.474,0.122,0.793,2.075
-0.052,-0.028,0.849,1.221,0.610,3.296
-0.041,0.015,0.718,-0.183,1.038,4.272
0.006,-0.016,1.006,0.916,0.488,4.456
0.095,-0.123,1.156,1.282,1.526,3.235
0.057,-0.068,1.187,0.000,1.465,1.587
-0.051,0.001,0.825,0.488,1.404,1.221
-0.056,-0.009,0.810,1.160,0.732,1.526
0.099,-0.047,1.034,1.648,1.282,2.258
0.010,-0.074,1.136,1.404,0.793,2.441
0.021,0.012,0.847,-0.793,0.916,2.319
-0.061,-0.034,0.942,2.014,1.221,1.892
0.075,-0.093,1.087,1.648,1.709,1.160
0.035,-0.036,1.051,0.854,1.160,1.038
0.021,0.028,0.715,0.610,1.282,1.465
-0.028,0.004,0.726,2.502,1.221,1.831
0.034,-0.036,0.932,1.038,1.282,1.892
0.101,-0.085,1.288,0.122,0.977,1.648
0.051,-0.121,1.218,1.465,1.160,1.526
-0.030,0.044,0.678,0.549,0.732,0.977
-0.031,-0.003,0.741,1.892,2.197,0.916
0.115,-0.017,0.980,0.671,0.427,0.916
-0.049,-0.062,1.125,0.183,0.732,0.793
0.007,-0.055,0.920,2.197,1.709,0.366
0.001,0.026,0.770,0.244,1.099,-0.488
-0.026,-0.018,0.859,1.404,1.465,-0.854
0.149,-0.054,0.999,1.343,1.953,-0.549
0.100,-0.068,1.162,1.099,0.793,-0.183
-0.000,-0.034,0.963,0.000,0.977,0.854
-0.063,0.019,0.753,1.282,1.099,1.282
-0.150,-0.005,0.780,1.160,1.587,0.793
0.026,-0.050,1.133,0.977,1.709,-0.061
0.233,-0.146,1.344,1.343,1.526,-0.488
-0.057,-0.055,1.115,0.488,-0.061,-0.366
-0.049,-0.026,0.752,1.831,2.075,0.061
0.090,0.029,0.777,-0.610,1.404,0.854
0.032,-0.007,0.972,0.122,1.099,1.587
0.113,-0.079,1.140,2.930,0.488,1.526
-0.045,-0.035,1.019,-0.244,1.404,0.671
-0.016,-0.027,0.932,1.282,1.770,0.183
-0.004,0.015,0.764,2.380,0.732,0.061
0.021,-0.003,0.824,0.854,1.526,1.160
0.118,-0.070,1.104,2.197,0.793,2.136
0.042,-0.051,1.156,-0.427,1.404,2.808
0.000,-0.095,1.037,2.075,1.099,2.808
-0.016,0.017,0.752,1.831,0.977,2.197
0.021,0.011,0.822,0.305,1.770,2.380
0.123,-0.088,1.125,2.625,0.977,2.258
-0.012,-0.015,1.006,0.000,1.282,2.502
-0.125,-0.064,0.995,1.892,0.977,2.808
0.037,-0.053,0.993,1.465,1.282,2.747
0.022,-0.061,0.998,0.732,2.197,2.991
-0.051,-0.036,0.945,2.441,0.671,2.686
0.037,0.029,0.736,-0.549,1.526,2.625
0.049,-0.013,0.910,1.282,0.671,3.235
-0.018,-0.058,1.097,2.441,1.038,2.869
0.055,-0.061,1.105,-0.183,1.648,2.380
0.053,-0.082,1.192,2.197,0.732,2.258
0.012,0.036,0.683,1.038,0.732,2.563
-0.036,0.016,0.715,2.136,1.709,3.113
0.106,-0.035,0.886,2.014,0.916,3.052
0.010,-0.086,1.257,0.183,0.549,2.686
-0.019,-0.088,1.044,2.502,1.282,2.563
-0.049,0.056,0.654,0.000,1.404,2.319
-0.005,-0.016,0.860,1.831,2.319,2.258
0.033,-0.070,1.094,2.075,0.854,1.892
0.036,-0.074,1.153,-0.366,1.587,1.892
0.021,-0.008,0.882,1.648,1.099,2.258
-0.074,0.006,0.685,1.160,1.343,2.075
0.073,-0.029,0.979,0.793,1.526,1.831
0.100,-0.135,1.341,0.854,1.221,1.526
-0.008,-0.054,1.119,3.113,1.038,0.977
-0.060,0.073,0.494,-0.244,1.770,1.343
-0.001,0.061,0.672,0.793,1.099,2.380
-0.141,0.019,0.786,2.197,0.671,2.930
0.038,-0.088,1.124,0.549,1.465,2.319
0.097,-0.061,1.213,1.648,0.854,1.221
-0.019,-0.031,1.006,-0.671,1.038,0.977
0.014,-0.069,1.029,2.625,0.671,0.488
-0.010,0.025,0.733,0.305,1.099,0.122
0.086,-0.039,1.017,1.160,1.404,0.366
0.084,-0.091,1.150,2.014,0.916,0.488
-0.033,0.006,0.925,-1.099,1.648,0.732
-0.013,-0.076,1.014,2.625,1.282,1.038
0.010,0.019,0.814,0.977,0.977,0.977
-0.008,-0.041,0.913,0.916,1.404,0.916
0.078,0.016,0.810,0.854,1.648,1.160
0.038,-0.034,0.953,1.160,1.160,1.526
0.108,-0.087,1.198,1.953,0.671,2.075
-0.002,-0.001,0.953,-0.427,-0.122,2.686
-0.026,-0.028,0.910,2.686,1.404,2.747
-0.062,0.018,0.633,1.892,1.221,1.892
0.069,-0.023,1.046,0.305,2.136,2.075
0.039,-0.089,1.199,1.465,0.244,2.380
-0.036,-0.014,0.854,0.244,0.916,2.014
-0.023,-0.032,0.878,1.831,1.953,1.831
-0.012,0.012,0.801,0.793,1.282,1.221
0.131,-0.047,1.068,1.160,1.648,1.099
0.035,-0.103,1.221,1.038,0.977,1.648
-0.093,-0.014,0.891,1.038,0.671,2.075
-0.099,0.056,0.574,0.488,1.587,2.197
0.079,-0.038,0.997,1.953,1.831,1.831
0.223,-0.168,1.477,2.441,1.038,1.099
0.063,-0.054,1.037,-1.465,1.892,1.404
-0.083,-0.055,1.026,2.747,0.671,1.770
-0.039,0.052,0.495,1.343,1.160,1.892
0.069,-0.023,0.942,0.183,1.465,1.953
-0.035,-0.053,1.117,1.221,1.038,2.197
0.017,-0.023,0.995,-0.427,1.099,2.075
0.065,-0.086,1.142,3.174,1.221,1.404
0.002,-0.013,0.848,-0.183,1.160,1.465
-0.022,0.011,0.792,1.404,1.221,1.648
-0.100,-0.010,0.840,2.625,1.282,1.587
0.092,-0.062,1.130,0.000,1.770,1.587
0.050,-0.095,1.222,2.319,1.038,1.648
0.009,0.010,0.827,0.610,0.793,1.587
0.012,0.008,0.750,1.831,1.831,1.709
-0.103,-0.020,0.914,1.526,0.977,2.197
0.104,-0.094,1.149,0.244,1.892,2.319
0.039,-0.066,1.138,1.587,0.366,1.831
-0.052,0.009,0.854,0.061,1.282,1.526
-0.065,-0.031,0.815,2.441,1.160,1.282
0.101,-0.031,0.957,0.977,1.648,1.404
0.067,-0.115,1.284,0.610,0.732,1.526
0.076,0.014,0.827,0.305,1.221,1.404
-0.130,0.003,0.669,2.441,1.953,0.854
0.064,-0.034,1.073,1.648,1.892,0.671
0.073,-0.072,1.182,-1.160,0.549,1.587
-0.025,-0.090,1.100,2.869,1.221,2.197
-0.017,0.034,0.646,-0.488,1.648,2.014
0.039,0.004,0.852,1.038,1.587,1.892
-0.034,-0.055,1.031,3.479,0.549,1.282
0.067,-0.010,0.965,-0.854,1.587,1.282
0.055,-0.087,1.182,2.747,1.099,1.648
0.017,-0.005,0.835,1.038,0.732,1.465
0.005,0.013,0.785,0.916,1.648,1.892
-0.019,-0.047,0.956,2.625,1.038,1.892
0.086,-0.063,1.059,-0.305,1.404,1.953
-0.066,-0.057,1.107,1.892,0.732,2.258
0.040,-0.036,0.940,0.732,2.075,1.892
0.078,-0.005,0.842,0.366,1.221,1.770
-0.065,-0.028,0.884,1.282,1.648,1.648
-0.017,0.000,0.930,0.732,1.099,1.709
0.030,-0.018,0.961,-0.488,1.587,2.380
0.007,-0.092,1.198,2.502,0.610,2.258
-0.034,0.047,0.699,0.000,0.610,1.587
0.006,0.036,0.852,1.343,2.197,1.648
0.073,-0.106,1.084,3.540,0.671,1.831
0.182,-0.073,1.211,0.122,0.916,2.197
-0.030,-0.071,0.989,1.709,1.526,3.235
-0.062,0.046,0.533,1.953,1.160,3.601
0.078,-0.007,0.964,0.916,3.601,3.723
0.050,-0.069,1.218,0.916,-0.488,3.906
-0.030,0.002,0.911,-0.061,1.038,3.662
-0.055,-0.002,0.805,2.808,1.831,3.113
-0.063,-0.005,0.841,1.221,1.221,2.380
0.127,-0.047,1.031,0.793,1.648,2.380
0.013,-0.063,1.119,1.648,0.427,2.563
-0.011,-0.083,1.064,1.221,1.526,2.563
0.038,-0.007,0.815,1.709,1.038,2.563
-0.033,0.005,0.792,0.793,1.221,2.625
0.184,-0.088,1.145,0.793,1.343,2.563
0.011,-0.108,1.261,0.793,0.427,1.953
-0.112,-0.027,0.899,2.808,1.831,0.732
0.003,0.097,0.422,0.122,2.136,0.122
0.105,-0.034,0.962,0.122,1.770,0.244
0.172,-0.109,1.227,1.770,0.549,0.549
-0.040,0.004,0.947,-0.671,-0.427,0.854
-0.008,-0.068,0.997,1.892,2.625,0.732
-0.060,0.008,0.639,2.014,0.732,-0.122
0.010,0.017,0.884,-0.061,2.441,-0.854
-0.013,-0.091,1.182,0.610,0.366,0.732
-0.135,-0.017,0.915,1.648,1.465,0.916
0.053,-0.039,0.855,0.122,1.404,1.404
0.012,-0.085,1.233,1.953,0.549,1.343
-0.042,0.052,0.640,-0.671,1.831,1.160
-0.058,0.071,0.547,1.831,2.258,0.549
-0.089,0.007,0.830,2.625,1.770,0.061
0.112,-0.084,1.236,-0.244,1.404,0.549
0.062,-0.071,1.152,2.380,0.305,1.404
-0.055,-0.003,0.845,-0.305,1.953,2.380
-0.032,-0.025,0.904,1.831,0.305,2.808
-0.074,0.026,0.725,0.732,0.916,2.258
0.081,-0.034,1.046,0.671,2.197,1.038
0.135,-0.120,1.239,2.869,1.221,0.183
-0.008,0.000,0.838,-0.366,0.793,0.366
-0.031,-0.053,0.901,2.075,1.221,1.526
0.074,0.016,0.794,0.916,1.099,1.953
-0.020,-0.029,0.900,0.305,1.404,1.648
0.102,0.016,0.870,1.526,1.160,1.465
-0.064,-0.054,0.903,0.977,0.549,1.221
0.103,-0.030,1.097,0.549,2.441,1.404
0.068,-0.098,1.162,0.183,1.221,1.465
-0.017,-0.058,1.077,2.441,1.038,1.465
-0.054,0.053,0.580,0.122,1.038,2.319
0.108,-0.044,0.965,1.587,1.831,2.930
0.054,-0.009,0.958,0.977,0.122,3.235
-0.096,0.013,0.791,0.244,0.671,3.052
0.125,-0.028,0.954,1.953,2.197,2.808
0.151,-0.148,1.393,1.343,1.160,2.686
0.074,-0.139,1.227,2.136,1.465,2.625
-0.072,0.085,0.565,0.122,0.366,2.869
-0.051,0.045,0.661,2.197,2.380,3.418
0.043,-0.046,0.927,1.465,0.244,3.601
0.200,-0.148,1.457,0.488,1.831,3.113
-0.045,-0.074,1.047,1.038,0.549,3.296
-0.023,0.063,0.598,0.793,1.465,3.113
0.004,-0.031,0.897,2.930,2.014,2.747
0.165,-0.051,1.065,0.732,0.366,2.197
-0.027,-0.053,1.128,-0.488,0.732,2.014
-0.014,-0.075,0.974,2.625,1.709,2.075
-0.006,-0.005,0.824,0.610,1.038,1.587
0.037,-0.011,0.963,0.793,1.465,1.526
0.058,-0.020,0.902,1.526,0.854,1.465
0.068,-0.024,0.970,0.977,1.648,1.160
-0.011,-0.068,1.077,0.977,0.916,1.404
-0.042,-0.056,0.980,1.587,0.793,1.465
-0.168,0.019,0.894,0.183,1.465,1.526
0.128,-0.084,1.096,1.099,2.441,1.648
0.045,-0.075,1.164,2.075,-0.061,1.282
-0.017,0.034,0.721,-0.366,0.732,1.404
0.011,-0.018,0.820,2.014,1.526,2.075
0.071,-0.081,1.093,2.258,1.343,1.587
0.193,-0.125,1.316,-0.427,1.770,1.404
0.043,-0.149,1.285,2.136,0.977,1.831
-0.065,0.036,0.612,0.183,0.793,2.136
0.001,-0.028,0.840,1.709,1.770,1.831
0.109,0.004,0.862,0.549,1.099,1.404
-0.033,-0.065,0.984,0.610,0.427,1.160
0.005,-0.018,0.985,0.916,1.831,0.916
-0.005,-0.074,1.096,0.244,0.977,1.343
0.056,-0.038,1.140,1.770,1.465,0.732
0.026,-0.060,0.955,0.183,1.648,0.732
-0.039,-0.024,0.978,2.258,0.610,0.732
0.022,0.023,0.713,0.122,1.465,1.160
0.053,-0.011,0.919,1.526,0.549,1.770
0.014,0.014,0.934,1.343,1.221,2.136
0.050,-0.087,1.002,1.099,1.282,2.136
0.103,-0.053,1.184,2.014,0.793,1.648
-0.029,0.018,0.762,-0.610,0.854,2.075
-0.023,0.004,0.746,2.441,1.282,2.502
-0.079,-0.038,0.917,1.953,0.916,1.831
0.073,-0.046,1.175,0.183,1.343,1.282
0.054,-0.124,1.194,1.770,1.160,1.465
-0.022,0.016,0.740,1.099,0.122,1.709
-0.018,0.016,0.761,1.404,2.136,1.953
0.030,-0.032,0.902,1.160,0.732,2.197
0.054,-0.083,1.223,0.183,1.587,2.075
-0.006,-0.075,1.050,2.075,0.793,1.892
-0.054,0.036,0.744,0.000,1.038,1.526
0.119,-0.039,0.962,1.282,2.136,1.404
0.023,-0.092,1.190,1.648,1.038,1.221
-0.005,-0.012,0.924,0.244,1.404,1.282
-0.029,-0.006,0.811,1.038,1.099,1.709
0.035,-0.020,0.991,1.526,1.160,1.892
0.127,-0.084,1.154,1.465,1.160,1.709
-0.008,-0.047,1.073,0.671,0.977,1.587
-0.052,0.011,0.794,1.953,1.038,1.770
-0.069,-0.020,0.867,1.221,0.916,1.953
0.097,-0.055,1.042,1.282,1.282,1.953
0.013,-0.066,1.085,1.160,1.038,1.831
-0.004,-0.029,0.919,0.671,1.526,1.343
-0.003,-0.025,0.840,1.404,1.648,1.038
0.024,0.000,0.796,0.427,1.282,0.671
0.024,-0.030,0.881,1.099,1.221,0.366
0.091,0.004,0.890,0.488,1.282,0.549
-0.010,-0.029,0.946,0.854,1.099,1.160
-0.057,-0.020,1.051,1.343,1.160,1.526
0.086,-0.055,1.089,0.122,1.770,2.258
-0.009,-0.055,1.000,2.258,0.122,2.441
0.030,0.016,0.836,0.000,1.831,2.747
0.017,-0.058,1.152,0.916,0.732,3.174
-0.027,0.032,0.754,1.648,1.038,2.014
-0.042,-0.001,0.724,2.869,2.258,0.793
0.077,-0.046,1.004,0.488,1.465,0.427
0.113,-0.085,1.278,-0.366,1.099,1.404
0.036,-0.057,1.059,3.662,0.183,1.648
0.012,-0.068,0.910,-0.122,1.953,1.526
0.119,-0.030,1.030,0.610,0.854,1.465
-0.032,-0.048,0.948,0.916,1.526,1.709
-0.012,-0.009,0.797,1.770,0.610,1.404
0.089,-0.017,0.920,0.061,1.953,1.587
0.023,-0.079,1.210,0.610,-0.305,2.258
0.126,-0.112,1.202,1.953,1.953,2.258
-0.005,0.028,0.768,1.038,0.916,1.648
-0.045,-0.006,0.679,1.343,2.563,1.770
0.117,-0.024,1.076,0.916,0.610,2.625
0.022,-0.108,1.251,1.282,0.793,3.052
-0.012,-0.052,0.961,2.258,1.160,2.930
0.002,0.035,0.722,0.366,1.221,2.563
-0.010,-0.039,0.945,2.014,1.343,2.502
0.006,-0.093,1.187,2.563,0.610,0.916
0.032,0.012,0.764,-0.854,1.343,0.854
-0.034,0.008,0.799,1.770,1.587,1.160
-0.080,-0.007,0.838,1.770,1.160,0.916
0.104,-0.044,1.050,0.061,1.160,0.916
0.046,-0.080,1.177,1.648,0.183,1.465
-0.012,-0.025,0.924,0.305,0.732,1.648
0.011,-0.022,0.846,1.343,1.343,2.380
0.047,-0.003,0.850,0.916,0.488,2.258
0.039,-0.038,0.979,0.793,0.916,2.258
0.086,-0.008,0.897,1.221,1.404,2.075
-0.108,-0.021,0.809,1.282,1.587,1.831
0.064,0.020,0.812,0.793,1.587,2.014
-0.030,-0.021,0.978,0.427,0.916,2.502
0.123,-0.080,1.201,2.686,1.587,2.380
0.013,-0.009,1.062,-0.305,0.305,1.953
-0.136,0.005,0.754,2.502,1.770,1.770
-0.046,0.046,0.522,1.343,1.709,2.258
0.109,-0.043,1.063,1.160,2.563,2.869
0.091,-0.092,1.185,2.197,0.061,3.113
0.051,-0.069,1.188,-0.061,0.305,2.808
-0.043,-0.021,0.911,1.648,1.709,3.235
-0.105,0.019,0.596,1.526,0.488,2.686
0.080,-0.035,1.051,1.343,2.686,2.014
0.028,-0.077,1.164,0.305,-0.061,2.380
0.025,-0.031,1.037,0.244,1.038,2.197
-0.028,-0.019,0.765,2.136,1.648,1.648
-0.056,-0.013,0.907,0.488,0.916,1.221
0.103,-0.084,1.127,1.099,1.526,1.221
-0.076,-0.049,1.065,1.465,0.549,1.526
0.037,-0.056,0.999,0.671,2.136,1.465
-0.043,-0.012,0.977,1.343,0.549,1.648
0.033,-0.042,1.011,1.404,1.587,1.648
0.047,-0.089,1.110,2.075,1.038,1.221
0.016,0.018,0.764,-0.854,1.465,1.892
-0.045,-0.018,0.801,2.930,1.160,2.441
0.000,-0.038,0.971,1.587,0.916,1.831
0.040,-0.028,1.080,-1.038,1.282,1.770
0.023,-0.065,1.151,2.869,0.977,1.526
0.068,-0.094,1.066,0.732,1.465,1.282
-0.087,-0.030,1.035,0.671,0.427,1.526
0.080,-0.109,0.990,1.404,1.526,2.197
0.030,-0.053,1.205,2.197,0.244,2.258
-0.065,0.065,0.586,-0.854,1.404,2.014
0.075,-0.003,0.759,2.441,2.930,1.953
0.129,-0.112,1.249,3.113,0.366,0.977
-0.012,-0.009,0.990,-1.343,1.160,1.099
0.013,-0.016,0.780,0.610,1.343,2.441
0.055,-0.026,0.916,2.319,0.793,2.380
0.018,-0.024,0.949,0.183,1.099,1.526
0.055,-0.031,1.035,0.854,1.343,1.465
0.034,-0.111,1.227,1.526,1.404,1.404
0.044,-0.090,1.147,1.282,1.221,1.526
-0.035,0.042,0.631,0.732,0.610,1.465
-0.033,0.022,0.722,1.221,1.953,1.892
0.156,-0.055,1.018,1.099,0.610,2.197
-0.028,-0.082,1.236,0.916,0.854,1.892
-0.022,-0.053,0.937,1.526,1.892,1.526
-0.023,0.010,0.793,1.221,1.099,1.038
0.092,-0.027,0.988,1.160,1.587,1.221
0.045,-0.026,0.998,1.282,0.732,1.953
-0.026,-0.015,0.836,1.709,1.404,2.380
-0.065,0.018,0.822,0.671,1.587,2.319
0.074,-0.071,1.149,1.160,1.709,2.808
0.144,-0.117,1.305,1.831,1.099,2.502
-0.030,-0.017,0.943,-0.183,0.366,2.380
-0.061,-0.006,0.794,1.831,1.221,2.563
-0.035,-0.009,0.850,0.977,0.671,2.502
0.069,-0.105,1.131,1.526,1.404,2.197
0.064,-0.079,1.128,2.075,1.099,2.075
0.001,0.003,0.796,-0.183,1.038,2.014
0.002,-0.012,0.801,1.587,1.953,2.197
0.068,-0.004,0.930,1.526,1.221,1.648
0.045,-0.042,0.952,0.916,1.038,1.038
0.066,-0.001,0.915,0.549,1.404,1.221
-0.035,-0.039,0.894,1.953,0.977,0.977
-0.038,0.001,0.887,0.061,1.709,0.732
0.119,-0.077,1.217,-0.244,1.831,1.404
0.035,-0.093,1.137,2.930,0.427,1.343
0.008,0.016,0.740,-0.732,0.977,1.587
-0.006,-0.013,0.924,0.793,1.038,2.502
0.003,0.003,0.793,2.441,0.732,2.563
0.016,-0.011,0.857,0.854,1.831,2.380
0.066,0.011,0.899,1.038,0.854,2.502
-0.031,-0.068,1.001,1.526,0.732,3.113
0.076,-0.032,1.119,1.465,1.221,2.930
-0.000,0.011,0.830,-0.671,1.160,2.869
-0.036,-0.001,0.801,2.625,1.160,3.113
-0.107,0.005,0.818,1.587,1.099,2.563
0.151,-0.066,1.183,1.038,2.258,2.319
-0.018,-0.078,1.131,1.648,0.366,2.258
-0.017,0.024,0.780,1.099,0.732,2.136
0.016,-0.029,0.830,2.075,1.404,2.319
0.000,-0.047,1.028,1.404,1.160,2.380
0.048,-0.100,1.140,0.488,1.465,2.258
0.026,-0.065,1.012,1.160,0.977,2.380
-0.036,0.006,0.858,0.671,1.282,2.441
-0.012,0.002,0.767,1.282,1.648,2.197
0.109,-0.028,0.935,1.526,1.770,2.136
0.165,-0.084,1.223,0.732,0.732,2.197
-0.018,-0.057,1.078,-0.427,1.526,2.686
-0.032,-0.002,0.847,2.563,0.916,2.991
-0.008,0.030,0.723,0.916,1.343,2.808
0.074,-0.026,0.938,0.427,1.221,3.174
0.201,-0.060,1.159,1.770,1.160,3.357
-0.054,-0.048,1.003,0.671,0.977,3.601
-0.017,-0.008,0.779,3.479,1.160,3.601
0.072,0.013,0.848,2.319,1.343,3.723
0.006,-0.025,0.860,0.366,0.671,4.089
0.154,-0.015,0.966,0.305,1.343,4.395
-0.052,-0.125,1.230,1.526,-0.122,4.333
0.013,-0.100,1.158,2.625,2.014,3.784
-0.034,0.064,0.576,1.282,1.160,3.235
-0.011,0.023,0.727,1.404,2.563,2.869
0.158,-0.040,0.934,-0.061,0.854,2.808
-0.049,-0.086,1.234,0.427,0.244,2.441
-0.005,-0.079,0.939,1.709,1.953,1.953
0.004,0.009,0.793,0.610,0.854,1.282
0.050,-0.013,0.965,0.610,1.831,1.282
0.069,-0.041,0.962,1.038,0.610,1.282
0.064,-0.073,1.036,1.282,1.160,2.014
0.028,-0.076,1.165,2.014,0.977,1.953
0.008,0.023,0.808,-0.244,0.854,2.197
-0.026,0.017,0.721,1.709,1.404,2.258
-0.073,-0.017,0.838,1.770,1.099,1.892
0.118,-0.105,1.250,0.427,1.343,1.770
0.039,-0.063,1.131,0.977,0.854,2.014
-0.001,-0.015,0.843,1.099,1.343,2.014
0.004,0.010,0.778,0.916,2.258,2.258
0.061,-0.013,0.934,1.404,1.038,2.136
0.025,-0.041,0.991,0.793,1.343,2.075
0.061,0.010,0.873,0.732,1.404,2.136
-0.026,-0.019,0.922,0.977,1.221,2.502
0.179,-0.067,1.061,1.282,0.916,2.747
0.004,-0.080,1.178,0.000,1.038,2.930
-0.042,-0.037,0.944,2.136,0.549,2.686
-0.040,0.042,0.566,0.916,1.038,2.319
0.041,-0.018,0.964,1.343,1.587,2.563
0.061,-0.072,1.113,1.282,0.122,3.052
-0.025,-0.048,1.024,0.610,1.221,2.930
-0.129,-0.028,0.945,2.014,1.404,2.808
0.105,-0.037,0.984,0.427,2.075,2.686
0.034,-0.064,1.103,1.587,0.366,2.686
-0.003,0.030,0.771,0.793,1.465,2.563
-0.008,0.010,0.746,2.014,2.136,2.319
-0.022,-0.025,0.961,1.770,1.465,2.075
0.143,-0.135,1.316,0.732,1.099,2.686
0.034,-0.129,1.248,2.014,0.671,3.479
-0.043,0.065,0.630,0.000,0.488,4.028
-0.020,0.008,0.756,2.258,1.953,4.089
0.071,-0.039,1.000,1.465,0.549,3.845
0.059,-0.084,1.212,0.427,1.221,3.540
0.030,-0.076,0.978,1.587,1.343,3.479
-0.026,-0.005,0.873,1.343,0.671,2.869
-0.079,-0.002,0.847,0.977,1.404,1.831
0.122,-0.038,0.966,1.160,2.258,1.221
0.050,-0.088,1.202,1.343,0.977,0.671
0.022,0.024,0.774,-0.366,0.793,0.854
-0.026,0.000,0.734,2.014,1.282,1.221
-0.032,-0.025,0.930,0.854,1.892,0.793
0.169,-0.094,1.253,-0.671,1.770,0.793
0.041,-0.105,1.271,2.991,0.732,0.610
-0.029,0.059,0.609,-0.793,1.282,0.305
-0.024,0.054,0.721,1.404,1.953,0.427
-0.063,-0.042,0.757,2.625,0.305,0.488
0.088,-0.064,1.276,-0.183,1.038,0.427
0.110,-0.122,1.212,0.488,1.038,1.282
-0.002,0.013,0.865,1.770,0.732,1.160
0.001,-0.006,0.718,1.282,2.502,1.038
0.151,-0.011,0.949,0.305,0.061,1.404
-0.047,-0.109,1.237,1.038,0.793,1.221
-0.053,-0.067,0.993,2.136,1.770,0.488
0.061,-0.047,0.995,0.671,2.197,0.000
-0.077,-0.055,1.078,0.977,0.671,-0.122
0.034,-0.053,1.001,0.549,1.648,0.366
-0.005,-0.066,1.058,2.441,0.793,-0.183
0.033,0.016,0.696,-1.160,1.892,0.183
0.014,0.006,0.834,0.793,1.160,0.488
-0.044,-0.079,1.105,3.235,1.038,0.427
0.119,-0.053,1.047,-0.977,1.160,0.916
0.033,-0.085,1.163,1.831,0.427,1.526
-0.006,-0.002,0.788,1.282,0.977,1.465
0.012,0.027,0.666,0.671,1.770,1.343
-0.083,-0.036,0.853,2.380,0.854,1.404
0.082,-0.089,1.266,0.305,0.793,2.075
0.073,-0.093,1.215,1.099,0.854,3.052
-0.006,0.005,0.837,0.549,0.610,3.113
0.001,0.012,0.762,1.648,2.380,2.869
0.018,-0.025,0.976,1.526,0.671,2.441
0.061,-0.065,1.158,0.061,1.831,2.136
0.024,-0.057,1.030,2.625,0.916,1.770
-0.005,-0.051,1.019,0.977,1.587,1.343
0.076,-0.060,1.032,1.404,1.099,1.404
-0.031,-0.011,0.906,0.732,0.977,1.770
-0.002,-0.033,0.896,2.747,1.038,1.526
0.052,0.022,0.736,0.916,1.221,1.343
0.022,-0.040,0.995,1.160,1.221,1.587
0.023,0.004,0.865,1.282,0.732,1.648
-0.040,-0.051,0.918,0.793,1.343,1.282
0.156,-0.064,1.163,0.427,1.343,0.977
-0.084,-0.026,0.962,-0.610,0.610,0.977
-0.027,-0.013,0.835,2.136,1.648,0.854
-0.072,-0.014,0.918,0.977,0.854,0.427
0.100,-0.051,1.061,0.610,1.404,0.671
0.049,-0.062,1.075,1.648,0.732,1.099
0.012,-0.003,0.848,0.671,1.099,1.648
0.019,-0.024,0.870,2.014,1.282,2.258
0.006,-0.011,0.905,1.343,0.732,2.502
0.110,-0.055,1.066,1.038,1.221,2.563
0.009,-0.034,1.007,1.404,0.732,2.625
-0.081,-0.018,0.826,1.465,1.404,2.441
-0.077,-0.036,1.027,1.221,1.587,1.953
0.142,-0.141,1.281,1.099,1.892,1.709
0.004,-0.079,1.107,3.235,0.610,1.221
-0.036,0.027,0.625,0.000,1.465,1.709
0.016,0.003,0.846,-0.183,1.465,3.113
0.010,-0.008,0.888,0.977,0.793,3.296
0.073,-0.035,1.014,1.404,1.770,2.686
0.118,-0.068,1.230,0.916,0.366,2.380
-0.082,-0.055,1.039,-0.305,0.183,2.747
0.008,-0.048,1.021,2.136,1.770,2.808
0.013,0.036,0.705,0.305,1.160,2.625
-0.014,0.001,0.741,2.014,0.793,2.930
-0.110,0.004,0.954,1.221,0.977,3.235
0.036,-0.061,1.159,-0.061,1.892,3.479
0.047,-0.122,1.269,2.930,1.343,2.625
-0.030,0.050,0.640,0.549,0.427,1.831
-0.026,0.013,0.780,1.648,1.709,2.014
0.112,-0.031,0.898,2.136,0.854,2.625
0.009,-0.109,1.217,0.916,1.038,2.258
0.004,-0.082,1.045,1.709,1.526,2.197
0.000,0.028,0.737,0.366,1.221,2.136
0.031,-0.014,0.901,1.648,2.136,1.892
0.060,-0.052,1.053,1.770,0.793,1.770
0.039,-0.019,1.021,0.183,1.038,2.014
0.013,-0.008,0.852,1.343,1.343,2.197
0.025,-0.027,0.921,1.404,1.770,1.770
0.025,-0.014,0.981,0.671,0.488,1.648
0.004,-0.092,1.007,0.793,1.221,1.343
0.066,-0.048,1.134,1.343,1.404,0.610
0.044,-0.123,1.273,1.770,0.427,0.488
-0.016,0.034,0.737,0.244,0.916,0.488
-0.023,-0.008,0.762,1.892,2.319,0.671
0.031,-0.027,0.976,1.892,0.854,0.854
0.020,-0.070,1.159,0.061,1.465,0.793
0.025,-0.078,1.014,2.136,1.038,0.732
0.005,0.006,0.804,0.183,1.404,0.366
-0.052,-0.007,0.802,1.526,1.465,0.183
0.148,-0.065,1.007,1.831,1.831,0.427
0.022,-0.041,1.148,0.000,0.610,0.549
0.033,0.009,0.816,0.793,0.854,1.099
-0.011,-0.012,0.799,1.770,1.526,0.732
0.082,-0.053,1.097,0.549,1.648,0.244
0.105,-0.076,1.210,-0.183,1.526,0.610
-0.043,-0.030,0.983,2.686,0.488,0.732
-0.003,0.013,0.734,0.610,1.404,1.099
0.094,-0.005,0.878,0.122,1.526,1.892
-0.068,-0.058,1.145,3.052,0.671,1.648
0.069,-0.048,1.037,0.061,1.404,1.831
-0.010,-0.072,1.101,1.648,0.366,2.502
-0.016,0.016,0.813,1.099,0.793,2.747
0.018,-0.002,0.796,1.160,1.587,2.808
0.030,-0.060,1.056,2.380,0.916,2.197
0.010,-0.063,1.070,0.122,1.099,2.075
-0.011,-0.063,0.990,1.465,1.404,2.136
-0.010,0.015,0.791,0.549,1.587,1.709
-0.025,0.022,0.704,1.038,1.160,1.282
0.097,-0.044,0.952,1.831,1.770,1.221
0.108,-0.052,1.169,0.122,0.916,1.343
-0.003,-0.061,1.061,0.122,1.343,1.831
-0.097,-0.029,0.946,2.075,0.732,1.404
-0.138,0.056,0.700,-0.244,1.709,0.671
0.161,-0.073,1.087,2.197,2.075,0.671
0.016,-0.080,1.213,2.014,-0.244,0.793
-0.021,0.021,0.783,-0.793,0.488,1.770
-0.018,0.004,0.761,2.136,1.221,2.686
-0.168,-0.019,0.819,2.319,1.282,2.380
0.141,-0.049,1.111,-0.488,2.747,1.831
0.009,-0.090,1.192,2.075,-0.427,2.136
-0.075,0.010,0.820,-0.366,1.160,2.197
-0.111,-0.035,0.961,1.282,1.648,2.075
0.085,-0.089,1.094,2.380,1.648,1.282
0.044,-0.040,1.068,0.183,1.038,0.427
-0.021,0.021,0.737,0.183,1.282,0.732
-0.047,0.004,0.868,2.441,0.916,1.099
0.173,-0.095,1.131,1.770,1.648,1.038
0.116,-0.087,1.326,0.122,1.038,1.038
-0.060,-0.011,0.877,1.465,1.038,1.587
-0.060,0.042,0.575,1.953,0.916,2.380
0.080,-0.035,1.004,1.343,2.014,2.930
0.038,-0.073,1.192,1.709,-0.122,3.540
-0.040,-0.000,0.932,-0.244,0.671,3.418
-0.082,-0.018,0.875,2.380,1.770,2.991
-0.077,-0.023,0.902,1.343,1.343,1.831
0.071,-0.044,1.063,0.610,2.197,1.282
-0.033,-0.034,0.945,2.686,0.305,1.160
0.036,-0.014,0.837,0.488,2.258,1.099
0.059,-0.016,0.970,0.732,1.160,1.526
-0.031,-0.024,0.931,0.671,1.404,1.892
0.183,-0.073,1.121,1.160,1.587,1.526
0.021,-0.072,1.174,-0.122,1.221,1.160
-0.064,0.010,0.784,2.502,1.221,0.854
0.010,0.057,0.496,1.465,1.770,1.221
0.021,0.016,0.917,0.305,0.854,2.686
0.164,-0.091,1.098,2.930,0.793,3.601
0.062,-0.084,1.226,-0.183,0.305,3.296
-0.052,-0.076,1.068,0.793,1.587,3.723
-0.088,0.029,0.661,1.526,0.671,3.052
0.001,-0.014,0.926,0.732,2.502,2.258
0.096,-0.087,1.127,1.953,1.038,1.953
0.035,-0.028,1.068,-0.732,0.488,1.770
-0.084,-0.040,0.887,2.319,1.770,2.136
-0.064,-0.016,0.839,1.038,1.404,1.953
0.155,-0.059,1.129,0.122,2.014,1.831
-0.055,-0.093,1.154,2.502,0.305,1.831
0.002,-0.030,0.829,0.977,1.831,2.014
0.024,0.040,0.759,0.183,1.404,2.441
0.060,-0.057,0.998,1.831,0.854,3.235
0.124,-0.050,1.086,1.465,0.671,2.808
-0.019,0.002,0.839,-0.732,1.221,2.502
0.048,-0.044,0.902,3.113,1.099,2.075
0.038,-0.029,0.941,1.465,0.366,2.014
-0.053,-0.025,0.866,1.343,0.366,2.319
-0.106,-0.004,0.767,0.366,2.258,2.319
0.068,-0.087,1.190,0.793,1.892,2.014
0.087,-0.122,1.186,2.808,0.427,1.282
-0.012,-0.004,0.868,-0.854,1.099,1.160
-0.035,-0.016,0.876,0.488,1.038,2.136
-0.062,0.022,0.629,1.038,1.404,1.709
-0.005,0.024,0.922,0.977,1.648,0.854
0.150,-0.090,1.112,1.587,1.526,0.549
0.103,-0.076,1.259,0.610,0.305,0.671
-0.055,-0.031,0.911,1.221,1.343,1.648
-0.069,0.034,0.603,1.038,0.793,2.197
0.114,-0.038,1.044,0.732,2.441,1.953
0.034,-0.062,1.167,1.709,-0.122,1.648
-0.001,-0.020,0.939,-0.122,1.221,1.282
-0.017,-0.026,0.910,2.075,2.136,1.221
-0.030,0.005,0.808,1.343,1.038,1.099
0.098,-0.031,0.993,0.549,2.014,1.648
-0.016,-0.042,1.064,1.587,0.183,2.441
-0.030,-0.035,0.895,1.160,1.465,2.258
0.002,-0.029,0.940,0.916,1.648,2.258
-0.033,-0.027,0.865,1.648,0.427,2.197
-0.024,-0.021,0.927,0.671,1.343,1.770
0.065,-0.084,1.250,0.977,1.953,2.014
-0.006,-0.057,0.987,2.136,0.183,2.014
-0.047,0.049,0.542,0.244,1.160,2.380
-0.004,0.041,0.867,1.404,1.404,3.052
0.090,-0.110,1.052,2.563,1.038,2.563
0.190,-0.101,1.344,-0.244,2.075,1.526
-0.071,-0.057,0.976,0.854,0.916,1.709
-0.081,0.040,0.652,1.160,0.732,1.953
0.051,-0.008,0.877,0.488,2.319,2.380
0.098,-0.083,1.099,2.319,0.244,2.380
0.040,-0.031,1.102,-0.488,0.732,2.136
-0.064,-0.030,0.870,1.526,1.343,2.197
-0.052,-0.020,0.881,1.892,1.160,1.526
0.105,-0.028,1.014,-0.183,2.136,1.343
0.062,-0.022,0.964,1.953,0.366,1.404
0.060,-0.061,1.148,1.709,0.793,1.404
-0.013,0.027,0.752,0.488,0.793,1.221
-0.025,0.009,0.707,2.136,1.343,1.709
-0.076,-0.014,0.919,1.587,0.732,1.770
0.057,-0.062,1.156,-0.305,1.465,1.648
-0.013,-0.073,1.066,1.892,0.305,1.343
-0.033,0.007,0.830,1.099,1.343,0.854
0.068,-0.042,0.928,0.488,1.953,0.916
0.074,-0.039,0.999,1.709,0.427,0.916
-0.008,-0.032,0.902,0.732,1.892,0.488
0.101,-0.052,0.968,0.427,1.831,0.549
-0.040,-0.001,0.910,1.343,0.366,1.160
-0.203,0.008,0.737,0.854,1.404,1.648
-0.039,0.011,1.012,0.488,2.136,1.770
0.243,-0.147,1.312,2.747,1.892,1.221
-0.000,-0.113,1.312,2.014,-0.183,0.916
-0.124,0.052,0.635,0.305,1.709,2.014
-0.045,0.009,0.794,0.000,1.038,3.296
0.052,-0.113,1.231,3.052,0.427,3.113
0.068,-0.068,1.154,0.916,0.854,2.197
-0.034,-0.004,0.908,0.549,1.343,1.648
0.011,-0.023,0.748,2.625,1.709,1.282
0.030,-0.023,0.987,1.160,0.549,0.854
0.032,-0.076,1.132,0.427,1.099,1.099
0.027,-0.056,0.989,2.136,1.343,1.404
0.032,-0.004,0.842,0.732,1.282,0.916
-0.014,-0.010,0.836,0.916,1.404,1.099
0.080,-0.013,0.837,1.038,1.648,0.916
0.066,-0.068,0.929,1.526,1.221,-0.244
0.096,-0.049,1.054,0.427,1.770,-0.061
-0.036,-0.018,0.954,0.549,0.244,1.221
-0.126,-0.028,0.898,1.282,1.160,1.892
0.025,-0.052,1.066,1.160,0.793,1.648
0.027,-0.051,1.093,1.648,1.282,1.282
0.031,0.003,0.747,0.000,1.282,1.953
-0.001,-0.020,0.868,2.136,1.221,2.686
-0.072,-0.034,1.005,1.404,0.671,2.319
0.051,-0.042,1.032,-0.366,1.526,2.258
0.148,-0.115,1.277,2.869,1.160,1.770
-0.015,-0.020,0.943,0.793,0.854,1.282
-0.034,0.000,0.777,1.404,1.282,1.770
0.062,-0.011,0.868,1.404,1.038,2.014
0.094,-0.054,1.058,0.610,0.793,1.953
-0.007,-0.056,1.067,1.526,1.282,2.075
-0.078,-0.020,0.824,0.793,0.977,2.075
-0.167,0.005,0.791,0.610,1.404,2.014
0.094,-0.057,1.128,0.671,2.930,1.709
0.041,-0.079,1.107,2.319,0.366,1.038
0.026,0.030,0.665,-0.305,1.038,1.465
-0.030,-0.016,0.919,1.404,1.221,2.808
0.093,-0.002,0.878,1.404,1.038,3.113
0.002,-0.040,0.975,0.793,1.343,2.502
0.012,-0.003,1.012,1.465,0.916,2.380
0.055,-0.047,1.017,0.122,1.587,2.686
0.106,-0.063,1.232,2.136,0.854,2.808
-0.084,0.010,0.795,0.549,0.183,2.686
-0.043,0.013,0.771,1.831,1.648,3.052
-0.079,-0.030,0.910,1.953,1.282,2.869
0.011,-0.071,1.202,1.587,1.709,2.319
0.235,-0.170,1.351,2.014,2.441,1.892
-0.057,-0.024,0.972,0.977,-0.061,1.953
-0.006,-0.040,0.747,1.831,2.502,2.502
0.110,0.024,0.815,-0.366,0.916,3.235
0.001,-0.043,1.048,0.732,0.732,3.357
0.171,-0.087,1.112,1.892,1.160,2.441
0.037,-0.072,1.225,-0.610,1.160,0.977
0.030,-0.127,1.171,2.197,1.892,0.305
-0.074,0.043,0.602,1.465,0.427,0.305
0.011,0.021,0.759,0.732,2.441,1.282
0.097,-0.053,1.084,1.404,-0.061,2.686
0.034,-0.059,1.226,-0.061,1.587,2.991
-0.072,-0.051,0.932,2.258,0.610,2.441
-0.058,0.014,0.790,0.549,1.099,1.587
0.052,-0.016,0.970,1.099,1.465,1.221
-0.062,-0.071,1.073,1.709,0.854,0.854
0.078,-0.050,1.033,0.610,1.465,0.549
-0.058,-0.031,0.932,1.892,0.671,0.610
0.092,-0.029,0.924,0.549,2.380,1.038
0.041,-0.013,1.009,0.916,0.366,1.404
-0.026,-0.066,1.007,1.892,1.160,1.526
0.073,-0.079,1.164,1.038,1.160,1.160
0.090,0.024,0.755,-1.465,1.709,1.282
-0.073,-0.035,0.785,3.052,1.892,1.160
0.172,-0.036,0.971,1.282,0.610,0.977
0.045,-0.070,1.286,-0.549,0.427,1.770
0.026,-0.154,1.196,2.930,1.465,2.747
-0.005,0.036,0.669,1.160,1.099,1.282
-0.047,0.019,0.758,0.366,2.319,0.793
0.108,-0.020,0.983,1.404,0.061,1.221
0.025,-0.078,1.227,0.732,1.465,1.343
0.019,-0.061,0.970,2.014,1.099,1.404
-0.000,0.023,0.767,0.305,1.038,1.282
-0.021,-0.018,0.948,1.404,1.465,1.465
0.009,-0.027,0.951,1.404,0.916,1.038
0.070,-0.038,0.997,1.160,1.648,0.305
-0.072,-0.059,1.097,1.404,0.610,0.610
0.048,-0.048,1.012,0.305,1.465,1.404
0.074,-0.087,1.103,2.258,1.160,1.648
-0.032,-0.041,0.901,0.305,1.343,1.282
0.040,-0.016,0.879,1.282,0.977,1.404
0.020,-0.048,0.936,1.099,1.587,1.404
-0.038,-0.007,0.802,1.282,0.488,0.916
0.109,0.033,0.713,0.366,2.319,1.587
-0.044,-0.010,0.833,0.854,0.122,2.380
0.194,-0.086,1.159,2.075,1.343,2.014
0.074,-0.073,1.286,-0.732,0.610,1.709
-0.018,-0.106,1.156,2.075,1.953,1.343
-0.039,0.042,0.538,1.892,0.671,0.732
0.000,-0.013,0.794,1.160,2.563,1.160
0.059,-0.033,1.155,0.916,-0.366,2.380
-0.031,-0.026,1.096,-0.366,1.038,3.418
-0.013,-0.090,1.088,2.563,1.099,3.052
0.017,0.019,0.837,0.000,1.221,1.770
-0.011,-0.016,0.903,1.648,1.160,1.648
-0.075,-0.036,0.930,2.258,0.854,1.648
0.063,-0.028,1.027,0.427,1.587,2.136
0.090,-0.079,1.134,2.686,1.038,2.197
-0.003,-0.024,0.890,0.854,0.854,2.380
-0.025,0.010,0.800,1.282,1.099,3.113
-0.053,-0.008,0.890,1.892,1.099,3.174
0.016,-0.032,0.902,1.770,0.793,2.075
-0.000,-0.031,0.859,1.221,1.343,2.014
0.027,-0.003,0.831,0.610,0.854,2.075
0.081,-0.045,0.951,1.282,1.282,1.587
0.046,-0.036,1.017,0.854,1.099,0.916
-0.055,-0.024,0.843,1.282,1.343,0.427
-0.054,-0.018,0.933,0.671,1.587,0.610
0.100,-0.084,1.142,-0.244,1.404,1.282
-0.110,-0.059,1.125,2.014,0.122,1.038
0.090,-0.028,0.891,-0.122,1.709,0.854
0.055,-0.080,1.234,0.671,1.343,0.854
-0.001,0.026,0.752,0.916,1.099,0.671
-0.086,0.026,0.595,2.563,1.953,0.488
0.000,-0.040,1.043,1.587,1.770,0.793
-0.039,-0.039,1.245,-0.488,0.488,1.648
0.116,-0.132,1.214,2.747,1.770,2.136
0.026,-0.079,1.140,1.282,0.061,1.648
-0.065,0.050,0.668,-1.526,2.258,1.648
-0.128,0.008,0.653,1.160,0.732,1.831
0.149,-0.102,1.294,3.113,2.075,1.099
0.139,-0.105,1.250,-0.427,0.488,1.648
-0.056,-0.008,0.859,0.183,0.854,2.197
-0.055,-0.019,0.761,2.686,1.587,2.075
0.073,0.026,0.817,0.183,1.099,1.892
-0.006,-0.025,0.933,1.526,1.221,1.587
0.122,-0.035,1.000,2.014,0.793,1.465
0.015,-0.061,1.203,-0.488,1.160,1.831
-0.007,-0.103,1.132,2.502,1.343,2.197
-0.064,0.047,0.617,1.099,0.793,1.526
0.009,0.021,0.771,0.610,2.258,1.648
0.155,-0.095,1.183,2.686,0.732,1.892
0.008,-0.029,1.067,-0.488,1.465,1.831
-0.008,-0.060,0.919,1.831,1.526,2.502
0.011,-0.001,0.857,1.709,0.916,2.502
-0.044,-0.036,0.973,0.488,1.038,2.747
0.113,-0.084,1.055,1.343,1.526,3.296
0.024,-0.085,1.226,1.587,0.671,3.418
-0.037,0.039,0.709,0.488,1.038,3.357
-0.052,-0.009,0.705,2.625,1.831,3.540
0.120,-0.087,1.206,1.831,1.526,3.052
0.071,-0.079,1.200,-1.526,0.732,3.235
-0.028,-0.073,1.050,3.479,0.671,3.357
-0.047,0.032,0.678,0.916,1.282,2.625
-0.006,0.051,0.693,-0.244,2.014,2.441
0.014,-0.024,0.827,2.380,0.732,2.747
0.037,-0.093,1.252,1.282,0.671,2.502
0.118,-0.114,1.244,-0.366,1.953,2.625
-0.058,0.013,0.757,1.587,0.549,2.258
-0.019,-0.006,0.735,1.648,2.625,1.221
0.127,-0.002,0.883,-0.305,0.977,1.221
-0.060,-0.044,0.957,1.953,0.488,0.977
0.075,-0.003,0.833,0.732,2.441,0.549
0.033,-0.030,0.992,-0.488,1.099,0.916
0.144,-0.098,1.298,1.648,0.793,1.038
-0.004,-0.042,1.065,0.000,0.366,0.732
-0.029,-0.005,0.888,1.648,2.075,0.488
-0.042,0.040,0.566,2.319,1.099,0.305
0.071,-0.043,0.987,1.709,1.953,0.427
-0.065,-0.040,1.149,0.305,0.000,1.587
0.030,-0.060,1.047,-0.122,1.709,2.563
-0.016,-0.096,1.200,2.502,0.610,2.075
-0.023,0.022,0.775,0.488,1.221,1.038
0.005,0.035,0.663,1.160,1.831,0.916
-0.103,-0.010,0.825,2.747,1.160,0.977
0.094,-0.056,1.136,-0.183,1.587,1.953
0.025,-0.104,1.198,1.526,0.366,3.296
-0.038,0.024,0.730,0.610,0.488,3.540
-0.019,0.006,0.716,1.282,1.953,3.113
0.072,-0.044,0.990,1.709,1.160,2.319
0.039,-0.081,1.154,0.305,1.160,1.526
-0.110,-0.053,1.003,1.526,1.038,1.343
0.126,-0.049,1.008,1.099,2.380,1.648
0.035,-0.014,0.891,0.916,0.366,2.441
0.022,-0.028,0.841,1.282,1.526,3.113
0.075,-0.028,1.054,1.099,1.038,3.052
0.017,-0.005,0.960,-0.488,1.099,3.052
0.000,-0.033,0.934,2.808,1.587,2.502
-0.147,0.025,0.617,1.282,0.977,2.136
0.099,-0.036,1.159,1.160,1.648,2.869
0.033,-0.108,1.211,1.404,0.366,3.845
0.126,-0.051,1.110,1.160,1.160,3.601
-0.083,0.019,0.830,0.854,1.404,3.418
-0.063,0.040,0.488,2.075,1.099,3.296
0.118,-0.031,0.946,2.441,2.869,2.625
-0.005,-0.055,1.206,-0.122,-0.183,2.686
0.041,-0.077,1.135,-0.366,1.770,3.540
-0.029,-0.039,1.019,2.319,0.427,3.540
-0.001,0.018,0.764,0.610,1.221,2.380
-0.015,0.035,0.733,1.099,1.709,1.465
0.013,-0.031,0.887,2.625,1.526,1.282
0.137,-0.131,1.386,1.892,1.404,1.526
0.035,-0.075,1.086,0.122,0.671,2.563
-0.056,0.019,0.764,0.793,0.671,2.991
0.008,-0.000,0.804,2.014,1.709,2.563
0.054,-0.070,1.115,1.526,0.916,1.404
0.034,-0.088,1.156,0.366,1.404,0.549
-0.114,-0.043,0.969,0.854,1.038,0.610
0.067,-0.082,1.059,1.831,1.831,0.488
0.039,-0.008,0.903,1.526,0.305,0.488
0.001,-0.025,0.797,0.427,1.343,1.221
0.094,-0.029,1.047,0.488,1.160,1.587
0.006,-0.015,0.941,0.977,1.282,1.160
0.004,0.000,0.786,1.770,1.343,0.488
-0.156,0.009,0.624,1.221,0.916,0.122
0.114,-0.083,1.269,0.854,2.197,0.366
0.091,-0.101,1.241,-0.549,0.427,1.343
-0.028,-0.013,0.990,1.343,0.916,0.610
-0.038,0.032,0.568,1.465,1.953,0.061
-0.101,0.023,0.822,-0.122,0.854,0.488
0.110,-0.107,1.288,1.526,2.136,0.549
0.036,-0.055,1.073,1.892,0.244,0.183
-0.052,0.006,0.843,-0.427,1.465,-0.061
-0.087,-0.041,0.882,2.441,1.221,0.244
0.114,-0.049,1.002,1.770,1.526,0.366
0.069,-0.110,1.281,0.610,0.916,0.488
0.055,0.025,0.750,0.427,1.160,1.160
-0.053,-0.017,0.823,2.686,2.625,1.099
0.175,-0.056,1.047,1.282,1.099,0.671
-0.037,-0.053,1.136,-0.610,0.549,1.343
0.002,-0.028,0.912,2.136,1.526,2.380
-0.030,-0.039,1.016,0.427,0.854,2.808
-0.031,-0.026,0.907,1.709,1.282,2.869
-0.048,-0.016,0.864,0.854,1.038,2.380
0.088,-0.042,1.041,0.732,1.648,2.502
-0.086,-0.039,1.070,1.282,0.916,2.380
0.077,-0.059,0.989,0.977,2.014,2.014
-0.067,0.001,1.018,0.916,0.793,2.014
0.057,-0.066,1.021,0.916,2.319,2.075
0.124,-0.067,1.162,1.953,0.732,1.892
-0.033,-0.016,0.924,-0.183,0.916,2.686
-0.018,-0.043,0.942,2.258,0.977,3.540
0.015,0.029,0.753,1.404,1.038,3.235
0.040,-0.005,0.898,0.854,1.343,3.296
0.131,-0.088,1.156,2.563,0.732,3.113
0.055,-0.096,1.137,0.916,0.977,2.930
-0.015,-0.083,1.064,2.075,1.343,2.869
-0.009,0.025,0.578,1.404,1.160,2.625
-0.003,-0.006,0.869,1.099,1.526,2.625
0.151,-0.082,1.136,0.793,0.671,2.441
-0.027,-0.069,1.081,-0.061,0.916,1.770
-0.028,-0.039,0.917,1.221,1.770,1.160
0.025,0.010,0.777,0.549,1.099,0.427
-0.096,-0.031,1.015,0.793,1.587,0.122
0.126,-0.086,1.143,0.488,2.197,0.366
0.007,-0.021,1.051,0.549,0.183,0.427
-0.101,0.068,0.631,0.366,1.343,0.671
0.053,-0.034,0.894,1.953,2.502,0.488
0.158,-0.107,1.297,2.136,0.854,0.244
-0.021,0.015,0.913,-1.587,1.038,0.977
-0.015,-0.026,0.802,2.869,1.404,2.258
0.030,-0.021,0.903,2.197,0.977,1.953
-0.007,-0.026,0.860,0.488,1.343,1.099
0.109,0.011,0.724,0.793,1.709,1.282
-0.073,-0.043,0.941,1.709,0.854,1.465
0.202,-0.067,1.121,1.038,1.465,1.587
-0.065,-0.023,1.040,0.610,-0.610,2.136
-0.048,-0.039,0.928,1.892,2.136,2.258
-0.031,0.025,0.636,1.221,1.099,1.587
0.023,0.014,0.943,1.038,2.502,1.526
0.137,-0.090,1.166,2.197,1.038,1.831
0.037,-0.070,1.196,0.427,0.000,1.709
-0.073,-0.041,0.925,1.770,1.953,2.380
-0.073,0.043,0.616,1.099,1.160,2.380
0.094,-0.026,0.981,1.099,2.686,2.136
0.036,-0.064,1.118,1.465,-0.061,2.258
0.072,0.004,0.889,0.244,0.916,2.380
-0.089,-0.010,0.801,2.014,1.465,2.625
0.076,-0.056,1.013,1.587,1.587,2.319
-0.052,-0.059,1.213,0.488,0.549,2.014
0.059,-0.058,1.059,0.000,2.136,2.869
-0.079,-0.062,0.995,2.502,-0.061,2.869
-0.092,0.027,0.742,0.122,1.404,2.625
0.126,-0.047,1.047,1.160,1.770,2.625
0.133,-0.143,1.310,3.296,0.549,2.258
-0.026,-0.021,1.033,-0.488,1.465,2.075
-0.053,-0.001,0.770,1.465,1.221,2.563
-0.001,0.033,0.727,1.099,1.099,2.502
-0.003,-0.002,0.928,1.709,1.465,1.770
0.176,-0.098,1.105,1.831,1.648,1.160
0.066,-0.076,1.225,0.305,0.732,1.343
-0.040,-0.077,1.012,1.587,1.404,2.075
-0.102,0.005,0.670,0.916,0.427,2.136
0.078,-0.008,0.931,1.099,1.892,1.953
0.078,-0.079,1.161,1.038,0.549,1.709
-0.014,-0.027,0.994,0.061,1.099,1.160
-0.040,-0.019,0.858,1.343,1.892,0.793
0.019,0.017,0.757,0.732,1.038,0.427
-0.026,-0.011,0.920,0.854,1.709,0.122
0.115,-0.073,1.129,0.854,1.953,0.488
0.123,-0.091,1.158,1.221,0.366,0.549
-0.008,-0.031,1.014,-0.061,1.526,1.282
-0.059,-0.032,0.922,1.831,0.305,2.014
-0.202,0.010,0.796,0.793,1.343,1.709
0.076,-0.054,1.181,0.916,2.686,1.465
-0.003,-0.080,1.101,2.991,-0.183,1.404
0.007,0.050,0.653,0.061,1.160,1.831
-0.025,0.021,0.763,1.648,1.587,2.747
0.089,-0.089,1.058,3.296,0.916,2.502
0.091,-0.081,1.218,-0.793,1.343,1.892
-0.043,-0.108,1.097,1.526,0.977,1.892
-0.081,0.033,0.667,1.221,0.793,1.526
0.040,0.002,0.859,0.549,2.808,1.282
0.113,-0.078,1.118,1.953,0.488,1.282
-0.005,-0.043,1.102,-0.488,1.282,1.343
-0.034,-0.048,0.926,1.587,1.526,1.953
0.002,0.018,0.798,1.038,0.977,1.831
-0.050,-0.028,0.976,1.038,1.038,1.587
0.112,-0.099,1.127,1.587,1.343,1.892
0.077,-0.071,1.206,1.099,0.793,2.136
-0.037,0.039,0.687,0.488,0.977,2.625
-0.040,0.025,0.682,2.502,1.831,2.747
-0.036,-0.033,0.831,1.953,0.732,2.258
0.143,-0.101,1.442,-0.122,1.892,2.258
0.045,-0.122,1.216,2.136,0.244,2.625
-0.055,0.030,0.807,0.488,1.160,2.441
-0.043,0.053,0.549,1.099,2.869,2.502
-0.121,-0.021,0.853,1.831,0.427,2.747
0.090,-0.085,1.303,0.122,2.441,2.625
0.019,-0.083,1.039,1.770,-0.244,2.869
-0.079,-0.003,0.883,0.122,1.770,2.502
-0.002,-0.062,0.974,1.709,1.160,2.014
0.071,0.010,0.760,0.977,1.282,1.465
-0.014,-0.018,0.889,0.977,1.770,1.465
0.038,-0.063,1.107,1.770,0.549,1.831
0.020,-0.043,1.126,0.061,0.732,2.380
-0.080,-0.062,1.070,2.136,1.465,2.319
0.120,-0.075,1.010,1.038,1.465,1.953
-0.011,-0.062,1.202,1.038,0.610,1.648
-0.032,0.041,0.678,0.000,1.343,1.709
-0.004,-0.001,0.766,2.502,2.197,1.282
0.161,-0.085,1.197,1.953,1.221,0.732
-0.013,-0.044,1.052,-1.404,0.732,1.648
-0.010,-0.045,0.946,2.747,1.099,2.625
-0.012,-0.075,0.988,0.916,1.770,2.136
0.043,0.002,0.966,-0.183,0.977,1.404
-0.041,0.023,0.666,1.526,1.038,1.160
0.008,-0.013,0.820,1.953,1.770,1.221
0.141,-0.065,1.143,0.488,1.099,1.648
0.135,-0.100,1.349,0.061,0.916,2.258
0.049,-0.156,1.279,2.258,1.648,2.380
-0.140,-0.051,1.066,3.479,0.488,3.296
0.043,-0.040,0.935,0.366,1.770,2.258
0.041,-0.033,1.068,0.793,1.709,2.075
0.027,-0.005,0.851,1.709,0.977,2.014
-0.007,-0.014,0.824,2.563,1.099,2.014
-0.031,-0.054,1.023,1.587,1.221,1.953
0.071,-0.071,1.128,0.183,1.160,2.258
-0.010,-0.070,1.097,1.587,1.099,1.709
-0.016,-0.004,0.809,0.671,1.160,0.732
-0.032,0.020,0.730,0.610,1.282,0.366
-0.092,-0.011,0.916,1.160,1.099,0.183
0.089,-0.083,1.117,0.305,1.343,-0.183
0.043,-0.072,1.163,0.427,0.854,0.061
-0.012,-0.006,0.846,0.366,0.793,0.122
-0.001,0.001,0.817,0.671,1.892,0.427
-0.010,-0.042,1.024,1.343,0.977,0.305
0.052,-0.062,1.079,0.793,1.465,0.305
-0.090,-0.028,1.048,0.610,1.160,0.427
0.065,-0.048,1.045,1.099,2.136,0.854
0.042,-0.015,0.875,1.221,0.488,1.099
0.022,-0.009,0.787,1.587,1.770,1.465
0.135,-0.042,1.064,1.770,1.038,1.953
0.038,-0.062,1.054,0.793,0.977,2.747
-0.012,-0.019,0.965,1.770,1.404,3.174
-0.122,0.028,0.617,2.441,0.916,2.808
0.075,-0.003,1.034,0.793,2.930,2.625
0.184,-0.106,1.266,1.221,0.549,2.991
-0.031,-0.065,1.092,1.770,0.549,3.296
-0.059,-0.030,0.763,2.197,1.404,3.357
-0.073,-0.016,0.883,0.244,0.977,3.601
0.025,-0.101,1.141,0.977,1.404,3.296
0.026,-0.089,1.112,2.380,1.099,1.892
0.045,-0.013,0.848,0.061,1.160,0.549
0.056,-0.032,0.876,0.793,1.648,0.671
0.017,-0.047,1.008,1.770,0.977,0.488
0.042,-0.032,0.887,0.488,1.587,0.000
0.052,-0.006,0.896,0.244,1.160,0.427
-0.062,-0.021,0.941,1.770,0.183,0.549
-0.127,0.056,0.659,0.183,1.526,0.366
0.093,-0.028,1.042,0.671,2.258,-0.427
0.291,-0.175,1.553,3.540,0.916,-1.404
0.001,-0.059,0.977,-0.488,1.404,-1.343
-0.045,-0.029,0.886,2.075,1.221,-0.610
-0.076,-0.021,0.787,1.709,0.610,0.671
0.006,0.013,1.032,-0.549,0.610,0.793
0.128,-0.128,1.180,2.686,2.014,0.549
-0.001,-0.090,1.196,0.916,1.221,-0.732
0.003,0.014,0.709,-0.305,2.014,-0.488
-0.075,0.009,0.837,0.854,0.671,0.610
0.104,-0.066,1.071,0.732,1.953,0.732
-0.095,-0.026,1.096,1.526,0.671,0.549
0.032,-0.046,0.988,0.305,2.136,0.732
0.039,-0.075,1.058,1.465,0.427,1.160
-0.050,-0.005,0.857,0.183,1.099,1.831
0.050,-0.049,0.944,1.526,1.465,2.075
0.069,-0.051,1.040,1.343,1.343,2.380
0.004,-0.016,0.947,0.793,0.305,3.174
-0.082,0.017,0.703,1.526,1.221,3.601
0.000,-0.013,0.963,2.136,1.953,3.601
0.203,-0.108,1.369,2.075,2.136,2.869
0.006,-0.094,1.258,0.610,1.221,3.296
-0.083,-0.033,0.878,2.808,0.488,3.418
0.036,0.035,0.705,0.427,1.587,3.906
0.068,-0.027,0.924,0.977,0.793,4.333
0.010,-0.037,1.056,2.441,1.160,3.540
0.047,-0.063,1.106,0.427,1.343,2.747
0.036,-0.063,1.022,1.831,1.282,2.258
0.023,-0.017,0.842,1.465,1.282,2.197
0.005,-0.002,0.816,0.732,0.977,2.502
-0.038,-0.028,0.965,1.160,1.099,2.747
0.041,-0.095,1.133,1.221,0.427,2.197
0.116,-0.105,1.215,0.488,1.587,1.831
-0.075,-0.008,0.900,1.465,0.671,1.343
0.009,-0.022,0.787,1.465,1.831,1.160
0.050,-0.038,1.014,0.000,1.282,1.770
-0.047,-0.035,1.023,1.343,0.488,1.892
-0.081,0.047,0.547,1.099,1.892,1.221
-0.027,0.050,0.780,1.526,2.075,0.427
0.128,-0.098,1.148,3.052,1.831,0.183
0.144,-0.184,1.525,1.038,0.916,0.183
-0.003,0.003,0.863,-0.122,1.709,1.404
0.015,0.024,0.649,0.305,1.465,3.174
0.048,-0.040,0.980,2.930,0.671,3.296
-0.083,-0.023,1.020,1.282,0.427,2.258
0.066,-0.042,0.981,-0.427,1.892,1.892
0.103,-0.094,1.253,1.831,0.854,1.770
-0.034,-0.012,0.883,1.282,0.610,1.221
-0.033,0.010,0.712,1.221,1.526,1.587
-0.047,-0.024,0.865,1.343,0.916,2.319
0.070,-0.094,1.233,0.916,1.038,2.502
0.049,-0.094,1.172,1.282,1.038,2.502
-0.004,0.007,0.896,0.427,1.160,2.075
-0.010,-0.010,0.755,1.282,2.197,1.526
0.008,-0.013,0.995,0.916,0.916,1.221
0.069,-0.087,1.160,0.732,1.526,1.038
0.013,-0.040,0.983,1.404,1.038,1.221
-0.000,-0.068,1.054,1.282,1.709,1.221
0.060,-0.048,1.023,1.221,0.854,1.282
-0.001,-0.041,0.969,0.671,1.404,1.648
0.005,-0.022,0.865,1.892,0.671,1.587
-0.047,0.017,0.797,1.099,0.916,1.953
0.053,-0.018,0.940,0.854,1.221,2.563
0.086,-0.104,1.189,2.136,0.793,2.625
0.016,-0.057,1.057,0.366,0.854,2.075
-0.046,-0.013,0.885,0.854,1.343,1.892
-0.065,-0.041,0.905,1.831,1.221,1.343
0.098,-0.048,1.015,0.732,1.648,1.221
-0.081,-0.042,1.100,1.221,1.038,1.526
0.066,-0.070,1.011,1.099,1.648,1.648
0.015,-0.041,1.079,0.916,0.732,1.648
-0.001,-0.074,1.091,0.977,1.587,2.014
0.006,-0.033,0.998,1.831,0.671,2.197
0.030,0.039,0.719,0.549,1.343,2.380
-0.048,-0.000,0.772,2.014,1.221,2.930
0.085,-0.035,1.033,1.831,1.160,2.747
0.045,-0.094,1.225,0.427,0.977,2.625
-0.025,-0.055,0.999,1.282,0.977,2.502
0.026,-0.016,0.831,1.648,1.282,2.014
0.023,-0.036,0.930,0.977,1.526,1.831
0.094,-0.010,0.870,0.977,1.282,1.831
0.041,-0.089,1.267,2.625,0.916,1.221
-0.077,0.058,0.588,-0.183,1.282,1.587
-0.051,0.070,0.549,0.977,2.625,2.258
-0.049,0.009,0.700,2.747,0.671,2.014
0.107,-0.109,1.273,0.854,0.793,1.282
0.079,-0.042,1.128,-0.244,0.732,1.465
0.002,0.022,0.727,-0.732,1.282,2.197
-0.001,-0.043,0.886,2.991,0.854,2.136
0.112,-0.003,0.885,1.099,0.732,1.526
-0.054,-0.021,0.872,0.732,1.221,1.526
0.059,0.014,0.806,1.221,2.258,1.892
-0.030,-0.031,0.993,1.221,0.977,2.258
0.145,-0.081,1.255,1.221,1.160,2.319
0.004,-0.052,1.012,0.671,0.244,2.625
-0.012,-0.018,0.858,2.380,2.075,2.258
-0.080,0.067,0.423,1.953,1.099,1.648
0.097,-0.041,0.888,1.648,2.136,1.343
0.216,-0.073,1.299,0.122,0.977,2.014
-0.038,-0.028,0.990,-1.282,1.160,3.174
0.037,-0.020,0.899,3.479,0.977,2.991
0.000,-0.118,1.099,1.831,1.343,1.709
0.029,0.027,0.872,-1.221,1.404,1.221
0.068,0.029,0.727,0.916,1.709,1.831
-0.019,-0.018,0.798,3.174,0.061,2.258
0.132,-0.043,1.037,1.038,1.404,2.441
0.041,-0.074,1.288,-0.305,0.488,3.113
0.064,-0.157,1.233,3.540,1.709,2.991
-0.048,0.031,0.725,1.831,0.244,2.075
-0.065,0.027,0.663,1.038,2.869,2.197
0.029,-0.015,1.040,-0.122,0.854,3.235
0.017,-0.115,1.273,1.404,1.038,3.052
-0.133,-0.051,1.015,2.991,0.732,1.709
0.059,-0.064,0.911,0.427,2.380,0.977
0.079,-0.034,1.105,-0.244,0.854,1.099
-0.026,-0.059,0.890,0.732,2.441,1.587
-0.025,0.011,0.865,2.502,0.061,0.610
-0.057,-0.023,0.936,1.221,1.587,0.488
0.044,-0.029,1.045,-1.038,0.366,2.075
0.136,-0.109,1.257,1.160,2.502,2.319
-0.029,-0.030,1.013,2.380,0.793,0.854
-0.036,0.030,0.577,0.977,1.343,0.366
-0.076,0.020,0.774,0.183,0.916,1.770
0.075,-0.089,1.193,1.953,0.549,2.197
0.021,-0.068,1.114,1.648,0.549,2.502
-0.042,0.029,0.752,-0.122,0.610,2.563
-0.017,-0.022,0.837,2.014,1.831,2.625
-0.005,-0.022,0.988,1.343,0.916,1.953
0.063,-0.088,1.155,0.732,1.404,1.221
0.053,-0.057,1.031,1.526,1.282,1.038
-0.070,-0.036,0.970,1.282,1.343,1.160
0.045,-0.069,1.012,1.465,1.526,1.282
0.045,-0.075,1.085,1.221,1.709,1.709
0.033,-0.031,0.955,1.404,0.854,2.197
0.013,-0.032,0.924,1.465,1.343,2.380
-0.028,0.005,0.775,0.916,0.549,2.502
-0.115,0.014,0.763,0.854,1.526,2.502
0.041,-0.050,1.136,1.038,0.793,2.136
0.248,-0.159,1.401,1.892,1.648,2.258
-0.060,-0.121,1.248,1.099,0.244,1.831
-0.077,-0.010,0.773,0.977,2.563,1.709
-0.009,0.050,0.786,-0.732,1.038,2.563
0.062,-0.055,1.100,0.488,0.854,3.052
-0.157,-0.037,1.087,2.136,0.488,1.892
0.019,-0.036,0.960,0.061,2.808,0.427
-0.130,-0.025,1.081,1.038,0.916,0.061
0.096,-0.074,1.043,1.404,1.953,0.183
-0.008,-0.045,0.988,1.709,0.732,0.305
-0.026,0.025,0.624,-0.183,1.282,1.465
-0.029,0.023,0.874,1.770,0.732,2.197
0.077,-0.090,1.079,1.831,1.099,2.380
0.058,-0.079,1.278,0.671,2.258,1.587
-0.031,-0.017,0.883,1.282,0.977,1.282
-0.059,0.002,0.771,0.916,0.671,1.648
0.016,-0.015,0.986,1.770,0.732,2.441
0.122,-0.090,1.091,2.502,1.404,2.747
-0.001,-0.086,1.147,0.366,1.343,2.136
-0.052,-0.012,0.845,0.610,0.977,2.258
0.012,-0.016,0.823,1.221,1.709,2.014
-0.003,-0.026,0.884,1.465,1.160,1.221
-0.038,-0.002,0.931,0.000,1.221,0.977
0.088,-0.071,1.056,0.305,0.793,1.404
0.038,-0.060,1.077,1.587,0.671,1.465
-0.001,-0.019,0.887,0.061,1.404,1.282
0.048,-0.020,0.857,1.038,1.587,1.465
0.002,-0.038,0.969,1.465,0.854,1.587
0.003,-0.057,1.006,1.770,0.854,1.526
0.049,0.030,0.776,0.305,1.526,2.136
0.004,-0.007,0.879,1.282,1.526,3.113
0.214,-0.099,1.212,2.625,0.977,2.869
0.068,-0.078,1.207,0.000,0.427,2.258
-0.040,-0.069,1.038,1.160,1.953,2.258
-0.082,0.012,0.659,2.319,0.549,2.136
0.093,-0.000,0.941,1.709,1.892,2.319
0.028,-0.038,0.988,0.244,0.549,3.418
0.011,-0.034,1.036,1.099,0.732,3.601
-0.047,-0.026,0.886,2.258,1.526,2.808
0.029,0.001,0.816,1.343,0.854,1.770
0.119,-0.066,1.008,0.671,1.587,1.770
0.010,-0.037,1.029,0.610,1.648,1.404
0.059,-0.027,0.840,1.892,1.221,1.221
0.001,-0.052,1.004,1.465,1.099,1.648
-0.037,-0.007,0.884,0.244,0.305,2.563
0.002,0.006,0.806,0.671,1.953,2.563
0.101,-0.123,1.287,1.465,1.465,1.648
0.068,-0.110,1.204,2.136,1.099,1.099
-0.050,0.010,0.740,1.099,0.122,1.343
-0.028,0.039,0.720,1.465,2.197,2.441
0.052,-0.043,0.877,0.427,0.488,3.418
0.140,-0.132,1.435,1.221,2.075,2.563
-0.059,-0.045,0.951,0.732,0.488,1.709
-0.094,0.046,0.610,0.854,0.977,1.709
0.019,-0.005,0.871,1.709,2.014,1.892
0.122,-0.060,1.088,0.916,0.183,2.258
-0.041,-0.056,1.103,0.488,1.038,1.770
-0.057,-0.038,0.885,1.221,1.831,1.770
0.026,0.001,0.812,1.648,1.221,1.282
-0.029,-0.004,0.917,1.465,1.343,1.221
0.123,-0.082,1.109,1.404,1.587,1.709
0.082,-0.080,1.172,1.465,0.793,2.380
-0.068,-0.049,0.984,0.671,1.221,2.502
0.091,-0.109,1.133,1.404,0.977,1.465
-0.048,0.014,0.798,1.465,0.488,1.282
-0.051,0.047,0.643,1.221,2.197,1.648
-0.086,-0.027,0.803,0.916,0.427,2.563
0.195,-0.125,1.432,2.075,2.258,2.380
-0.092,-0.027,0.947,0.732,-0.427,2.991
-0.086,0.048,0.667,0.671,1.282,3.479
-0.016,0.017,0.838,1.831,1.526,3.296
0.103,-0.073,1.100,2.075,1.160,2.380
0.039,-0.085,1.157,1.160,1.648,1.587
-0.038,-0.041,0.885,0.977,1.343,2.075
-0.005,0.005,0.815,1.404,1.465,2.380
-0.104,-0.013,0.893,1.831,1.404,2.258
0.144,-0.088,1.078,1.465,1.648,2.380
0.032,-0.060,1.201,0.916,0.061,2.686
-0.099,0.034,0.696,0.732,0.854,2.808
-0.023,0.015,0.688,1.343,2.136,2.197
0.141,-0.064,1.163,1.343,1.343,1.709
0.076,-0.136,1.294,0.854,0.610,2.075
-0.031,-0.017,0.935,1.587,1.099,2.563
-0.058,0.043,0.627,1.404,1.099,2.808
-0.025,0.027,0.703,1.831,1.709,2.625
0.063,-0.028,0.902,1.221,0.854,2.258
0.014,-0.089,1.265,1.099,0.671,1.831
0.070,-0.102,1.119,0.977,1.709,1.648
-0.026,0.036,0.759,0.244,0.671,1.892
-0.015,-0.014,0.788,1.099,2.441,1.953
0.104,-0.024,1.009,0.244,0.305,2.136
-0.052,-0.086,1.177,0.305,0.916,1.526
0.025,-0.032,0.883,0.488,2.014,0.854
-0.038,-0.058,0.995,1.038,1.526,0.183
0.056,-0.042,0.996,1.038,1.099,0.061
0.023,-0.023,0.874,0.183,1.038,0.549
0.012,-0.010,0.849,1.770,0.610,0.793
-0.037,-0.013,0.909,0.977,0.916,1.038
0.067,-0.044,1.070,-0.061,1.221,1.282
0.131,-0.093,1.230,2.014,1.160,1.038
-0.017,-0.040,1.014,0.671,0.732,0.549
-0.045,0.003,0.778,0.610,1.465,0.977
-0.060,-0.033,0.940,1.709,1.038,1.038
0.093,-0.072,1.079,0.977,1.160,0.732
0.017,-0.040,1.079,0.854,0.916,0.549
-0.035,-0.073,0.989,1.770,1.526,0.488
-0.017,-0.004,0.860,1.282,1.404,0.732
0.019,-0.003,0.887,1.160,1.282,1.343
0.155,-0.109,1.228,1.587,1.099,1.770
0.018,-0.041,1.123,0.122,0.732,1.831
-0.112,0.020,0.675,2.502,1.648,1.648
0.017,0.042,0.560,2.136,2.014,1.343
0.043,-0.016,1.023,-0.122,0.977,1.770
0.195,-0.084,1.194,0.244,0.916,2.808
-0.105,-0.033,0.978,0.671,-0.916,3.052
0.000,-0.059,1.022,1.160,2.930,3.296
-0.100,0.010,0.612,1.221,0.305,3.235
0.014,-0.000,0.979,1.648,2.319,2.441
0.132,-0.072,1.148,0.671,0.732,2.686
-0.053,-0.063,1.161,0.488,0.854,2.808
-0.024,-0.014,0.830,1.953,2.014,2.625
-0.068,-0.027,0.932,1.221,0.671,2.197
0.091,-0.035,1.059,0.610,1.465,2.380
-0.064,-0.035,1.053,1.160,1.221,2.380
0.057,-0.080,1.057,1.648,1.282,1.770
0.050,-0.036,1.053,1.465,0.671,1.526
-0.035,-0.069,1.043,1.160,1.221,1.831
0.034,-0.045,0.969,1.404,1.343,2.136
0.004,-0.003,0.869,1.587,0.793,1.770
0.080,-0.031,0.866,2.075,0.977,1.892
0.061,-0.098,1.139,2.075,1.404,2.441
-0.042,-0.004,0.901,1.160,0.183,2.808
-0.099,-0.010,0.830,1.465,1.526,2.625
0.079,-0.103,1.224,0.916,1.526,1.770
0.012,-0.093,1.184,0.916,1.343,0.977
-0.041,0.028,0.609,0.977,1.221,0.916
-0.007,-0.015,0.870,1.282,1.709,1.282
0.022,-0.005,0.900,0.183,0.732,1.587
-0.010,-0.021,0.902,0.122,1.648,1.221
-0.071,-0.014,1.076,0.488,1.404,0.671
0.099,-0.069,1.037,0.732,1.526,0.549
0.021,-0.057,1.179,1.404,0.427,0.793
-0.041,0.026,0.737,0.671,0.305,1.343
-0.009,-0.008,0.804,0.916,1.648,1.770
0.044,-0.040,1.035,1.526,1.343,1.526
0.063,-0.105,1.196,1.343,1.343,1.160
-0.029,-0.049,1.001,1.343,0.671,1.526
0.021,0.018,0.740,0.793,1.343,1.892
-0.023,0.012,0.766,0.793,1.526,1.709
0.045,-0.040,1.011,1.404,1.465,1.160
0.066,-0.100,1.243,1.404,0.854,1.038
0.010,-0.068,1.017,0.732,0.916,1.282
-0.062,-0.006,0.865,0.244,1.343,1.953
-0.043,-0.052,1.006,1.038,1.282,1.648
0.052,-0.082,1.067,1.221,1.709,0.793
-0.027,-0.036,1.004,1.404,0.671,0.488
-0.010,0.006,0.765,1.099,1.709,1.221
0.078,0.002,0.914,0.793,1.587,2.197
-0.027,-0.061,1.187,1.099,0.549,2.563
0.008,-0.072,1.062,1.099,1.038,2.319
-0.000,-0.032,0.999,1.221,1.282,2.014
0.018,0.011,0.769,0.854,0.977,1.892
0.011,-0.025,0.831,1.709,1.221,2.014
-0.032,-0.033,1.012,1.526,1.099,1.953
0.105,-0.111,1.266,0.488,1.526,1.831
0.053,-0.104,1.205,1.770,1.160,1.831
-0.032,0.025,0.750,1.404,0.427,1.526
-0.027,0.008,0.769,1.465,1.831,1.953
0.057,-0.024,0.964,0.671,0.854,2.380
0.048,-0.087,1.160,1.160,1.587,2.258
-0.029,-0.039,0.958,1.709,0.977,2.136
0.019,0.011,0.778,1.465,1.099,1.892
-0.020,-0.046,0.937,0.916,1.404,1.770
0.139,-0.090,1.166,0.000,1.526,1.892
0.077,-0.051,1.110,0.977,0.610,1.831
-0.017,-0.087,0.997,0.793,1.709,1.526
-0.028,-0.010,0.881,1.587,0.732,1.099
-0.112,-0.006,0.854,0.610,1.404,1.038
0.072,-0.036,1.045,-0.244,0.854,1.953
0.106,-0.085,1.237,1.282,1.221,2.197
-0.041,0.013,0.868,1.282,0.671,1.160
-0.061,0.016,0.649,1.587,1.953,0.916
-0.050,0.002,0.795,0.977,0.671,1.770
0.092,-0.076,1.111,2.136,1.160,2.014
-0.035,-0.016,0.866,2.014,0.183,1.770
0.156,-0.028,0.904,3.174,2.319,1.953
-0.044,-0.073,1.148,2.380,-0.244,2.258
-0.060,-0.041,0.929,2.258,1.831,1.587
-0.063,0.014,0.599,1.648,1.587,1.282
0.015,-0.028,0.991,0.977,1.831,1.343
0.183,-0.092,1.375,0.732,1.587,2.014
0.025,-0.144,1.190,-0.122,0.366,2.136
-0.045,-0.018,0.979,0.732,1.709,1.892
0.003,-0.031,0.803,-0.488,0.977,2.014
0.111,-0.002,1.005,-1.587,0.916,2.380
-0.115,-0.013,1.010,-0.977,0.916,2.625
0.060,-0.040,0.981,1.221,1.343,1.953
0.035,-0.060,1.160,1.526,0.916,1.038
-0.006,0.017,0.830,0.305,0.793,1.038
-0.000,0.004,0.767,1.770,1.587,1.282
-0.114,-0.009,0.829,2.258,1.282,1.343
0.100,-0.074,1.193,0.977,1.953,1.221
-0.020,-0.046,1.090,0.854,0.732,1.526
-0.024,0.002,0.797,0.977,1.221,1.465
0.015,-0.017,0.843,1.465,2.258,1.160
-0.049,-0.042,1.047,1.526,1.160,0.549
0.093,-0.084,1.137,0.732,1.709,0.305
-0.102,-0.038,1.013,0.732,0.488,1.038
0.038,-0.083,1.052,1.282,1.953,1.160
-0.015,-0.054,1.038,1.465,0.366,1.038
0.060,-0.013,0.840,-0.610,1.465,1.831
0.060,-0.062,1.202,0.977,0.610,2.563
0.011,-0.027,0.967,0.916,0.793,2.380
0.027,0.024,0.695,1.892,2.075,1.831
-0.072,0.064,0.438,1.648,1.343,1.892
0.134,-0.036,1.022,1.221,1.709,2.991
0.112,-0.051,1.239,0.549,0.549,3.784
-0.045,0.005,0.833,-0.793,1.770,4.272
-0.040,-0.015,0.815,3.113,1.221,4.150
0.020,-0.007,0.866,2.869,0.793,3.174
0.093,-0.021,0.945,1.038,1.465,2.563
0.055,-0.009,0.961,0.854,1.282,2.747
0.033,-0.031,0.978,1.892,1.404,2.502
0.131,-0.067,1.101,3.357,0.916,2.258
-0.044,-0.065,1.068,3.540,0.488,2.869
-0.029,-0.042,0.899,3.235,0.854,3.601
-0.079,-0.014,0.872,1.526,1.038,3.174
0.015,-0.025,0.998,-0.305,2.136,2.014
-0.037,-0.042,1.097,0.244,1.404,0.854
0.066,-0.087,1.080,0.549,1.343,0.305
0.019,-0.063,1.049,0.793,0.549,0.183
-0.005,-0.020,0.832,0.122,1.038,0.854
-0.031,0.004,0.839,-0.427,0.977,1.404
-0.119,0.010,0.803,-0.916,1.343,0.854
0.012,-0.007,1.073,-0.427,1.770,-0.244
0.120,-0.080,1.195,1.587,1.892,-0.977
0.036,-0.043,1.034,1.709,-0.122,-1.160
-0.040,0.008,0.727,0.977,1.709,0.427
-0.092,-0.024,0.963,0.305,0.977,2.258
0.066,-0.078,1.117,1.160,2.075,2.197
0.010,-0.045,1.068,2.014,1.038,1.038
-0.017,0.002,0.801,0.732,0.793,0.488
0.019,-0.015,0.848,1.282,1.587,1.587
0.066,-0.014,0.921,1.404,1.099,1.953
0.025,-0.035,0.906,0.977,1.282,1.953
0.069,-0.005,0.891,0.916,1.038,2.075
0.004,-0.032,0.964,1.221,1.038,2.197
0.012,-0.027,0.939,1.221,1.099,2.014
-0.011,-0.010,0.905,0.427,1.343,2.136
0.115,-0.097,1.165,1.099,0.916,2.502
0.080,-0.074,1.144,0.671,0.854,2.563
-0.044,-0.057,1.051,1.709,1.770,2.380
-0.060,0.054,0.417,2.014,1.160,2.319
0.080,-0.011,0.918,2.136,2.258,2.258
-0.036,-0.030,1.175,0.366,0.122,2.991
0.094,-0.057,1.019,-0.061,2.075,3.662
0.035,-0.073,1.221,1.587,0.610,3.418
-0.007,-0.001,0.850,1.404,0.610,2.502
-0.037,0.006,0.850,2.502,1.709,1.709
-0.123,-0.015,0.644,2.136,1.282,1.465
0.112,-0.070,1.238,2.563,1.465,1.648
0.084,-0.103,1.219,1.587,0.366,2.380
0.008,-0.011,0.903,1.038,0.732,2.563
0.003,0.013,0.740,2.014,2.075,2.319
0.063,-0.001,0.791,1.526,0.244,2.258
0.054,-0.092,1.243,1.587,1.343,1.404
-0.051,-0.018,0.875,0.488,0.854,0.916
-0.029,0.003,0.743,0.916,1.343,1.038
0.078,-0.042,0.959,0.854,1.038,1.404
0.068,-0.124,1.292,0.000,1.770,1.587
-0.026,-0.039,0.928,0.488,1.465,1.526
-0.073,-0.013,0.722,0.854,1.221,1.526
0.007,-0.016,1.049,0.916,1.343,1.465
0.126,-0.105,1.163,0.427,1.953,1.282
0.031,-0.059,1.113,0.671,0.854,0.732
-0.073,-0.010,0.831,1.770,1.099,0.610
-0.114,-0.010,0.836,1.343,0.854,1.282
0.067,-0.023,1.046,0.854,2.014,1.404
-0.067,-0.049,1.108,0.671,0.793,1.465
0.070,-0.063,1.010,1.221,1.038,1.465
-0.020,-0.035,1.017,1.404,1.404,1.282
0.033,0.003,0.881,0.732,1.404,0.854
0.013,-0.010,0.843,1.221,1.038,1.099
0.019,-0.035,1.007,1.587,1.099,1.465
0.054,-0.076,1.069,0.977,0.916,1.953
-0.103,-0.037,1.042,1.343,1.038,2.136
0.015,-0.064,1.012,1.404,1.953,1.648
0.066,-0.003,0.862,0.854,0.671,1.404
-0.059,-0.014,0.858,0.793,1.770,1.343
-0.020,-0.044,1.044,0.916,1.038,1.343
0.096,-0.077,1.106,0.427,0.854,1.648
-0.062,-0.040,1.063,1.831,0.610,1.282
-0.032,0.046,0.593,0.000,1.953,0.793
0.081,-0.020,1.000,0.977,2.258,0.854
0.172,-0.118,1.351,2.502,-0.061,1.343
-0.040,-0.020,1.006,0.427,0.305,2.075
-0.038,0.008,0.760,1.282,2.075,3.296
-0.099,0.001,0.733,2.075,0.916,3.357
0.090,-0.036,1.082,1.160,1.526,2.380
-0.020,-0.060,1.145,0.610,0.854,1.892
-0.026,-0.004,0.865,0.732,1.160,1.465
0.002,-0.018,0.800,2.197,1.709,1.404
-0.034,-0.044,0.990,1.648,0.977,1.587
-0.018,-0.012,0.966,0.671,1.221,1.953
0.042,-0.056,0.959,1.526,2.014,1.343
0.038,-0.035,1.047,1.221,0.549,1.221
0.024,-0.046,1.027,0.366,1.404,2.258
0.048,-0.060,1.077,1.404,0.854,2.747
0.036,0.042,0.731,0.366,1.160,2.319
-0.086,-0.015,0.790,2.441,1.343,2.258
0.051,-0.044,0.972,2.441,1.099,2.014
-0.001,-0.033,1.018,0.122,0.366,2.563
0.114,-0.074,1.167,0.122,1.343,3.357
0.026,-0.060,1.069,1.221,0.793,2.747
-0.036,-0.010,0.881,3.113,1.343,1.831
-0.053,0.008,0.667,2.197,1.160,1.404
0.106,-0.052,1.020,1.282,1.404,1.892
-0.063,-0.029,1.096,0.610,0.977,2.625
0.045,-0.047,0.953,0.427,2.014,2.258
-0.022,-0.036,1.061,1.038,1.099,1.526
-0.026,0.015,0.802,0.366,0.977,0.977
0.010,0.007,0.794,0.977,1.587,0.610
-0.070,-0.018,0.954,1.709,1.709,0.305
0.145,-0.088,1.170,0.977,1.465,0.366
0.015,-0.059,1.114,1.465,0.305,1.343
-0.035,0.003,0.794,1.160,0.854,2.075
0.030,0.003,0.829,1.221,1.465,2.380
-0.000,-0.040,0.987,1.648,1.099,1.831
0.094,-0.060,1.129,1.953,1.099,1.099
0.062,-0.104,1.167,1.465,0.854,1.404
0.016,-0.048,0.942,1.099,1.343,2.014
-0.020,-0.015,0.862,0.488,1.282,2.380
0.029,-0.028,0.823,0.549,0.854,2.502
0.173,-0.071,1.125,0.610,1.831,1.953
-0.030,-0.039,1.014,0.610,0.916,0.977
-0.037,0.006,0.741,2.014,1.526,0.854
-0.067,0.006,0.769,1.404,1.038,1.648
0.113,-0.055,1.168,0.854,1.160,2.441
0.025,-0.072,1.212,1.709,0.854,3.357
0.007,-0.004,0.886,1.343,0.244,3.052
-0.067,0.016,0.764,1.953,1.831,2.686
-0.050,-0.016,0.960,1.343,1.282,2.502
0.112,-0.075,1.124,1.160,1.953,1.953
0.034,-0.037,1.025,1.465,0.732,1.770
-0.077,-0.062,0.964,1.892,0.854,2.075
-0.114,-0.044,0.973,1.953,1.343,2.380
0.110,-0.068,1.090,1.343,2.625,2.319
0.032,-0.048,1.003,0.732,0.061,2.380
0.025,0.002,0.791,0.854,0.854,2.625
-0.067,-0.015,0.865,1.160,1.038,2.502
0.087,-0.002,0.864,0.488,2.014,2.136
-0.046,-0.015,0.848,0.549,1.099,1.526
0.127,-0.071,1.152,1.526,1.526,1.709
0.046,-0.034,1.026,0.977,-0.732,2.197
-0.072,-0.012,0.928,1.160,2.075,2.380
-0.094,0.022,0.598,0.732,1.648,1.831
0.069,-0.033,1.046,0.854,2.991,0.916
0.124,-0.076,1.276,1.099,1.282,0.854
0.023,-0.052,1.041,0.854,-0.427,1.343
-0.065,0.006,0.761,1.404,2.075,2.014
-0.066,0.036,0.574,0.793,1.465,2.441
0.137,-0.059,1.070,1.160,1.892,1.892
0.074,-0.023,1.092,1.892,-0.427,1.343
-0.137,-0.013,0.779,0.916,0.366,1.709
0.122,-0.062,1.068,0.366,2.930,2.136
0.147,-0.131,1.306,0.061,1.404,1.648
0.100,-0.133,1.289,1.953,1.770,0.610
-0.083,0.035,0.687,1.587,0.305,0.366
-0.068,-0.008,0.703,1.953,2.319,1.038
0.112,-0.031,1.041,0.427,0.366,1.709
-0.039,-0.071,1.156,-0.427,0.854,1.892
0.006,-0.037,0.951,0.977,1.648,1.648
0.003,-0.002,0.802,1.587,1.160,0.854
-0.005,-0.005,0.903,1.221,1.709,0.610
0.040,-0.070,1.031,1.099,0.793,1.099
0.042,-0.062,1.116,1.282,1.099,1.709
-0.056,-0.032,0.924,1.404,0.671,1.892
0.049,-0.013,0.866,0.671,1.709,2.014
-0.006,-0.064,1.125,1.282,0.977,1.648
-0.041,0.025,0.792,0.427,0.854,1.404
-0.023,-0.007,0.743,2.197,1.831,0.977
-0.016,-0.026,0.975,1.221,1.221,0.793
0.160,-0.065,1.131,-0.061,1.404,1.343
-0.019,-0.062,1.135,2.502,0.549,1.953
0.008,0.013,0.793,0.488,1.160,1.953
0.033,0.001,0.832,0.427,1.892,2.075
-0.044,-0.043,1.053,2.319,0.977,1.648
0.102,-0.066,1.066,0.732,1.526,1.404
-0.064,0.004,0.976,0.427,0.549,2.075
0.024,-0.094,1.051,2.563,1.648,2.136
-0.129,-0.065,1.174,2.258,0.366,1.648
0.119,-0.070,1.031,-0.427,2.441,1.892
0.108,-0.053,1.076,1.038,0.305,2.319
-0.022,-0.050,0.894,1.282,1.648,2.625
-0.035,-0.006,0.871,2.014,0.000,2.502
-0.131,-0.019,0.923,0.854,1.465,2.380
0.038,-0.032,1.054,0.427,1.221,2.136
0.032,-0.073,1.131,2.441,2.197,1.587
0.013,-0.010,0.765,1.709,0.793,1.038
-0.027,-0.001,0.823,1.343,1.221,1.770
0.004,-0.024,0.945,1.526,1.160,2.563
0.084,-0.030,0.957,1.404,1.465,2.258
0.027,-0.010,1.014,1.709,0.549,1.587
-0.013,-0.053,0.958,2.075,1.221,1.038
0.184,-0.094,1.268,2.075,1.709,0.977
-0.087,-0.005,0.939,0.977,0.488,1.465
-0.053,-0.006,0.735,1.404,1.526,2.075
0.116,0.011,0.824,1.587,1.282,2.319
-0.052,-0.007,0.881,1.282,0.916,1.953
0.198,-0.056,1.010,1.587,1.343,1.831
-0.067,-0.062,1.119,1.343,-0.610,1.770
-0.066,-0.049,0.957,1.587,2.075,1.648
0.022,0.006,0.659,1.221,1.709,1.160
0.030,-0.014,0.899,1.221,1.770,1.099
0.145,-0.082,1.146,1.648,0.671,1.648
-0.012,-0.052,1.083,1.770,0.244,1.953
-0.049,-0.029,0.890,1.709,1.709,1.953
-0.035,-0.014,0.777,1.343,1.160,1.648
0.112,-0.028,1.015,1.099,1.465,1.709
-0.024,-0.066,1.161,1.099,0.549,1.892
0.047,-0.069,1.002,0.916,1.343,1.953
0.026,-0.002,0.868,0.732,1.221,2.075
-0.017,-0.013,0.807,0.732,1.282,2.136
0.033,-0.121,1.342,1.099,0.977,2.075
-0.035,-0.006,0.907,1.465,1.099,1.953
-0.030,0.074,0.469,1.648,1.953,2.136
-0.005,-0.002,0.861,1.587,1.343,2.502
